%time,field.header.seq,field.header.stamp,field.header.frame_id,field.Mag.x,field.Mag.y,field.Mag.z,field.Accel.x,field.Accel.y,field.Accel.z,field.Gyro.x,field.Gyro.y,field.Gyro.z,field.Temp,field.Vinp,field.Pressure,field.Barometric_Height
1778036277808288384,1285,1778036277807793999,F2008915,-42010.0,-42010.0,-42010.0,0.020384,-0.0127,0.997469,-0.13556,0.54421,-0.01636,28.100000381469727,12.100000381469727,101.43000030517578,100412.0
1778036277808345110,1286,1778036277807888228,F2008915,-42190.0,-42190.0,-42190.0,0.037318,-0.024897,0.988882,0.04555,0.23006,-0.05192,28.200000762939453,12.029999732971191,101.45999908447266,100412.0
1778036277808392135,1287,1778036277807993134,F2008915,-41830.0,-41830.0,-41830.0,0.031543,0.009924,1.006703,0.08564,-0.60276,0.01368,28.200000762939453,12.0600004196167,101.45999908447266,100412.0
1778036277846098723,1288,1778036277845559466,F2008915,-42020.0,-42020.0,-42020.0,0.020331,-0.00287,1.003197,-0.13015,0.45681,-0.00882,28.299999237060547,12.010000228881836,101.5199966430664,100412.0
1778036277846125991,1289,1778036277845649820,F2008915,-42120.0,-42120.0,-42120.0,0.035063,-0.028532,0.987816,-0.00664,0.57627,-0.03609,28.200000762939453,12.0600004196167,101.5199966430664,100412.0
1778036277846188318,1290,1778036277845707850,F2008915,-41940.0,-41940.0,-41940.0,0.03843,0.003308,1.002234,0.14416,-0.63508,0.01797,28.200000762939453,12.0,101.5199966430664,100412.0
1778036277846229882,1291,1778036277845764127,F2008915,-42120.0,-42120.0,-42120.0,0.018248,0.009268,1.010193,-0.01693,-0.01423,0.08836,28.299999237060547,12.079999923706055,101.5199966430664,100412.0
1778036277883757840,1292,1778036277883370267,F2008915,-41970.0,-41970.0,-41970.0,0.030736,-0.024082,0.990258,-0.022,0.57647,0.00369,28.299999237060547,12.140000343322754,101.55000305175781,100412.0
1778036277883891823,1293,1778036277883527605,F2008915,-42060.0,-42060.0,-42060.0,0.040579,-0.005162,0.996362,0.11289,-0.23562,-0.01245,28.200000762939453,12.09000015258789,101.55000305175781,100412.0
1778036277883902669,1295,1778036277883695818,F2008915,-41960.0,-41960.0,-41960.0,0.020661,-0.01673,0.992656,-0.12822,0.724,0.0056,28.200000762939453,12.050000190734863,101.55000305175781,100412.0
1778036277917183074,1296,1778036277916961036,F2008915,-42300.0,-42300.0,-42300.0,0.0344,-0.01537,0.988976,0.02327,0.14335,-0.01374,28.200000762939453,12.149999618530273,101.48999786376953,100412.0
1778036277917191619,1297,1778036277917025577,F2008915,-42090.0,-42090.0,-42090.0,0.018217,0.015287,1.006758,0.00279,-0.54737,0.07902,28.299999237060547,12.149999618530273,101.48999786376953,100412.0
1778036277917419871,1298,1778036277917059268,F2008915,-42080.0,-42080.0,-42080.0,0.016801,-0.0099,0.994414,-0.10709,0.59503,0.03484,28.200000762939453,12.069999694824219,101.5199966430664,100412.0
1778036277955028721,1299,1778036277954723299,F2008915,-42320.0,-42320.0,-42320.0,0.031847,-0.024228,0.983792,0.02416,0.4545,-0.01868,28.299999237060547,12.149999618530273,101.5199966430664,100412.0
1778036277955042653,1300,1778036277954808382,F2008915,-42020.0,-42020.0,-42020.0,0.025372,0.008269,1.000122,0.10297,-0.6364,-0.00146,28.299999237060547,12.09000015258789,101.43000030517578,100412.0
1778036277955382325,1301,1778036277954871666,F2008915,-42120.0,-42120.0,-42120.0,0.012914,0.001275,1.002846,-0.0616,0.30028,0.02241,28.200000762939453,12.050000190734863,101.43000030517578,100412.0
1778036277955491574,1302,1778036277954926548,F2008915,-42090.0,-42090.0,-42090.0,0.027335,-0.023179,0.989595,-0.02805,0.45636,-0.0529,28.200000762939453,12.020000457763672,101.45999908447266,100412.0
1778036277992940139,1303,1778036277992500578,F2008915,-41950.0,-41950.0,-41950.0,0.030783,0.004051,1.000988,0.14701,-0.49157,0.00213,28.200000762939453,12.140000343322754,101.45999908447266,100412.0
1778036277992958729,1304,1778036277992597911,F2008915,-42090.0,-42090.0,-42090.0,0.01198,0.013057,1.013522,-0.04842,-0.07236,0.05339,28.200000762939453,12.069999694824219,101.43000030517578,100412.0
1778036277993459643,1305,1778036277992651616,F2008915,-41970.0,-41970.0,-41970.0,0.022265,-0.019236,0.995007,-0.08869,0.73485,-0.05549,28.299999237060547,12.119999885559082,101.43000030517578,100412.0
1778036277993492911,1306,1778036277992740545,F2008915,-42130.0,-42130.0,-42130.0,0.033647,-0.008042,0.997967,0.08448,-0.07256,-0.01545,28.200000762939453,12.0600004196167,101.37000274658203,100414.0
1778036278026468965,1307,1778036278026107819,F2008915,-42040.0,-42040.0,-42040.0,0.013951,0.014614,1.014533,-0.04651,-0.3698,0.06897,28.200000762939453,12.09000015258789,101.37000274658203,100414.0
1778036278026503254,1308,1778036278026179725,F2008915,-41840.0,-41840.0,-41840.0,0.017787,-0.015315,0.997104,-0.12585,0.64708,0.02309,28.200000762939453,12.100000381469727,101.37000274658203,100414.0
1778036278026785746,1309,1778036278026243550,F2008915,-42080.0,-42080.0,-42080.0,0.031018,-0.018206,0.991488,0.0454,0.14396,-0.02823,28.200000762939453,12.0600004196167,101.37000274658203,100414.0
1778036278064378672,1310,1778036278064006989,F2008915,-41810.0,-41810.0,-41810.0,0.017054,0.013569,1.009078,-0.02136,-0.49946,0.06365,28.299999237060547,12.0600004196167,101.4000015258789,100414.0
1778036278064645650,1311,1778036278064139107,F2008915,-41870.0,-41870.0,-41870.0,0.014271,-0.00586,1.001686,-0.1153,0.49782,0.03365,28.200000762939453,12.039999961853027,101.4000015258789,100414.0
1778036278064862314,1312,1778036278064227521,F2008915,-42040.0,-42040.0,-42040.0,0.030798,-0.022691,0.989197,-0.02172,0.33175,-0.04842,28.200000762939453,12.039999961853027,101.45999908447266,100412.0
1778036278064922824,1313,1778036278064309662,F2008915,-41780.0,-41780.0,-41780.0,0.027803,0.008255,1.004619,0.02206,-0.66746,-0.00143,28.200000762939453,12.100000381469727,101.45999908447266,100412.0
1778036278097960298,1314,1778036278097607278,F2008915,-41970.0,-41970.0,-41970.0,0.012918,0.003148,1.005797,-0.14684,0.25428,0.01915,28.299999237060547,12.079999923706055,101.45999908447266,100412.0
1778036278097981911,1315,1778036278097699934,F2008915,-41880.0,-41880.0,-41880.0,0.028596,-0.023567,0.988068,-0.09415,0.60515,-0.09577,28.299999237060547,12.100000381469727,101.45999908447266,100412.0
1778036278098190271,1316,1778036278097755134,F2008915,-41920.0,-41920.0,-41920.0,0.033139,-0.002439,0.996532,0.07201,-0.31702,-0.00769,28.200000762939453,12.050000190734863,101.43000030517578,100412.0
1778036278135931936,1317,1778036278135315476,F2008915,-42050.0,-42050.0,-42050.0,0.01329,0.009093,1.007416,-0.01661,-0.1822,0.05382,28.200000762939453,12.100000381469727,101.43000030517578,100412.0
1778036278135948373,1318,1778036278135378449,F2008915,-41850.0,-41850.0,-41850.0,0.02834,-0.023433,0.989455,-0.06583,0.52649,-0.06103,28.200000762939453,12.119999885559082,101.43000030517578,100412.0
1778036278135966786,1319,1778036278135429709,F2008915,-42080.0,-42080.0,-42080.0,0.037079,-0.014749,0.989992,0.11125,-0.11514,-0.01123,28.299999237060547,12.100000381469727,101.43000030517578,100412.0
1778036278135972351,1320,1778036278135586659,F2008915,-42020.0,-42020.0,-42020.0,0.020599,0.010816,1.007772,0.0507,-0.39105,0.0347,28.200000762939453,12.020000457763672,101.48999786376953,100412.0
1778036278173781658,1321,1778036278173135226,F2008915,-41870.0,-41870.0,-41870.0,0.026453,-0.012698,0.995865,-0.07021,0.6165,0.0093,28.100000381469727,12.029999732971191,101.48999786376953,100412.0
1778036278173826620,1324,1778036278173428162,F2008915,-42090.0,-42090.0,-42090.0,0.014477,0.000957,1.003992,-0.05913,0.38721,0.01864,28.200000762939453,12.020000457763672,101.43000030517578,100412.0
1778036278206846577,1325,1778036278206701190,F2008915,-42270.0,-42270.0,-42270.0,0.031802,-0.024902,0.985569,-0.05047,0.43737,-0.02477,28.200000762939453,12.0,101.43000030517578,100412.0
1778036278206850526,1326,1778036278206733266,F2008915,-42070.0,-42070.0,-42070.0,0.033503,0.001275,0.996391,0.04698,-0.47752,0.03028,28.200000762939453,12.100000381469727,101.43000030517578,100412.0
1778036278206852005,1327,1778036278206759494,F2008915,-42180.0,-42180.0,-42180.0,0.01782,0.002554,0.99981,-0.01788,0.22668,0.07735,28.200000762939453,12.100000381469727,101.43000030517578,100412.0
1778036278244845329,1328,1778036278244508278,F2008915,-42010.0,-42010.0,-42010.0,0.028882,-0.025895,0.983587,-0.00793,0.57399,-0.04332,28.200000762939453,12.0,101.43000030517578,100412.0
1778036278244877845,1329,1778036278244586070,F2008915,-41980.0,-41980.0,-41980.0,0.032284,-0.004352,0.992736,0.13383,-0.525,-0.03793,28.200000762939453,12.100000381469727,101.43000030517578,100412.0
1778036278244890187,1330,1778036278244642349,F2008915,-42060.0,-42060.0,-42060.0,0.014414,0.012983,1.007019,0.04956,-0.45805,0.00218,28.200000762939453,12.140000343322754,101.45999908447266,100412.0
1778036278245343878,1331,1778036278244705393,F2008915,-41830.0,-41830.0,-41830.0,0.026812,-0.018101,0.991379,-0.02231,0.53299,-0.05658,28.200000762939453,12.079999923706055,101.45999908447266,100412.0
1778036278282587126,1332,1778036278282366766,F2008915,-42070.0,-42070.0,-42070.0,0.042332,-0.012322,0.99245,0.17785,0.13555,-0.04172,28.299999237060547,12.079999923706055,101.48999786376953,100412.0
1778036278282596503,1333,1778036278282420596,F2008915,-41920.0,-41920.0,-41920.0,0.023967,0.019622,1.014002,0.07328,-0.27509,0.03422,28.200000762939453,12.079999923706055,101.48999786376953,100412.0
1778036278282601013,1335,1778036278282470942,F2008915,-42150.0,-42150.0,-42150.0,0.03215,-0.016412,0.994145,0.03999,0.00771,0.01546,28.200000762939453,11.970000267028809,101.5199966430664,100412.0
1778036278316607462,1336,1778036278316040163,F2008915,-41910.0,-41910.0,-41910.0,0.023104,0.012719,1.010561,-0.03156,-0.71004,0.07995,28.200000762939453,12.130000114440918,101.48999786376953,100412.0
1778036278316636157,1337,1778036278316136357,F2008915,-41940.0,-41940.0,-41940.0,0.014534,-0.005948,1.004172,-0.10823,0.50472,0.05862,28.299999237060547,12.130000114440918,101.48999786376953,100412.0
1778036278316644340,1338,1778036278316193028,F2008915,-42090.0,-42090.0,-42090.0,0.02975,-0.027034,0.988738,0.02221,0.79653,-0.02546,28.200000762939453,12.100000381469727,101.48999786376953,100412.0
1778036278354231486,1339,1778036278353718791,F2008915,-41980.0,-41980.0,-41980.0,0.030626,0.004045,1.002335,0.11412,-0.32532,0.06496,28.200000762939453,12.130000114440918,101.48999786376953,100412.0
1778036278354275949,1340,1778036278353774979,F2008915,-42190.0,-42190.0,-42190.0,0.009108,0.007668,1.009787,-0.05575,0.21054,0.06955,28.299999237060547,12.0,101.55000305175781,100412.0
1778036278354299642,1341,1778036278353854635,F2008915,-42020.0,-42020.0,-42020.0,0.018797,-0.022402,0.991658,-0.04002,0.25026,0.02275,28.200000762939453,12.119999885559082,101.55000305175781,100412.0
1778036278354335500,1342,1778036278353907662,F2008915,-42020.0,-42020.0,-42020.0,0.028026,-0.005025,0.996199,0.01754,-0.38802,0.02363,28.299999237060547,12.119999885559082,101.61000061035156,100410.0
1778036278387541711,1343,1778036278387335478,F2008915,-42060.0,-42060.0,-42060.0,0.008586,0.007224,1.007828,-0.02515,-0.04915,0.0555,28.200000762939453,12.010000228881836,101.61000061035156,100410.0
1778036278387549119,1344,1778036278387384226,F2008915,-41820.0,-41820.0,-41820.0,0.0197,-0.025603,0.987986,-0.06434,0.94962,-0.02174,28.299999237060547,12.0600004196167,101.61000061035156,100410.0
1778036278387720545,1345,1778036278387420087,F2008915,-42100.0,-42100.0,-42100.0,0.036902,-0.017924,0.987167,0.08496,0.0855,-0.06453,28.299999237060547,12.100000381469727,101.61000061035156,100410.0
1778036278425419294,1346,1778036278425103013,F2008915,-41990.0,-41990.0,-41990.0,0.017359,0.010615,1.006567,0.09126,-0.61979,0.05966,28.200000762939453,12.109999656677246,101.61000061035156,100410.0
1778036278425433492,1347,1778036278425163025,F2008915,-41840.0,-41840.0,-41840.0,0.020664,-0.01495,0.995553,-0.02927,0.24108,-0.02872,28.200000762939453,12.100000381469727,101.61000061035156,100410.0
1778036278425450220,1348,1778036278425238478,F2008915,-42100.0,-42100.0,-42100.0,0.031085,-0.025498,0.987661,0.16283,-0.02192,0.00329,28.299999237060547,12.050000190734863,101.5199966430664,100412.0
1778036278425453969,1349,1778036278425285580,F2008915,-41840.0,-41840.0,-41840.0,0.023398,0.006091,1.004633,0.14848,-0.51172,0.08884,28.200000762939453,12.109999656677246,101.5199966430664,100412.0
1778036278463576838,1350,1778036278462918515,F2008915,-41960.0,-41960.0,-41960.0,0.015859,-0.005463,1.002026,0.05398,0.4815,0.05525,28.299999237060547,12.020000457763672,101.61000061035156,100410.0
1778036278463609355,1351,1778036278463053506,F2008915,-42070.0,-42070.0,-42070.0,0.03069,-0.025448,0.988935,0.16546,0.49385,-0.00549,28.299999237060547,12.0600004196167,101.61000061035156,100410.0
1778036278463620791,1352,1778036278463137445,F2008915,-42000.0,-42000.0,-42000.0,0.032149,0.005867,1.004438,0.22783,-0.78994,0.03409,28.299999237060547,12.109999656677246,101.55000305175781,100412.0
1778036278463644935,1353,1778036278463218317,F2008915,-42210.0,-42210.0,-42210.0,0.011755,0.013049,1.012644,0.07901,-0.05838,0.00494,28.299999237060547,12.130000114440918,101.55000305175781,100412.0
1778036278497158287,1354,1778036278496621705,F2008915,-42080.0,-42080.0,-42080.0,0.023537,-0.020362,0.991996,0.04269,0.39388,-0.01288,28.200000762939453,12.130000114440918,101.48999786376953,100412.0
1778036278497177243,1355,1778036278496709750,F2008915,-42190.0,-42190.0,-42190.0,0.030373,-0.005336,0.996496,0.195,-0.17676,-0.04211,28.200000762939453,12.149999618530273,101.48999786376953,100412.0
1778036278497201087,1356,1778036278496782179,F2008915,-42190.0,-42190.0,-42190.0,0.010468,0.015143,1.010358,0.07373,-0.06126,-0.04947,28.299999237060547,12.0600004196167,101.52999877929688,100412.0
1778036278534736527,1357,1778036278534353871,F2008915,-41850.0,-41850.0,-41850.0,0.016188,-0.017474,0.992233,0.01099,0.68092,-0.0694,28.299999237060547,12.09000015258789,101.52999877929688,100412.0
1778036278534757374,1358,1778036278534451056,F2008915,-42150.0,-42150.0,-42150.0,0.03124,-0.01343,0.990452,0.22114,-0.10438,-0.14262,28.299999237060547,12.170000076293945,101.43000030517578,100412.0
1778036278534767951,1359,1778036278534515460,F2008915,-42080.0,-42080.0,-42080.0,0.016269,0.01821,1.00921,0.17738,-0.73295,-0.05583,28.299999237060547,12.149999618530273,101.43000030517578,100412.0
1778036278534794591,1360,1778036278534568335,F2008915,-42100.0,-42100.0,-42100.0,0.01825,-0.004437,0.998013,-0.00105,0.42942,-0.07514,28.299999237060547,12.119999885559082,101.43000030517578,100412.0
1778036278568373445,1361,1778036278568041148,F2008915,-42320.0,-42320.0,-42320.0,0.034449,-0.017591,0.990043,0.14773,0.25415,-0.0919,28.299999237060547,12.109999656677246,101.43000030517578,100412.0
1778036278568844031,1362,1778036278568179638,F2008915,-42050.0,-42050.0,-42050.0,0.028379,0.016426,1.009514,0.1303,-0.58232,-0.00438,28.200000762939453,12.15999984741211,101.4000015258789,100414.0
1778036278568935477,1363,1778036278568265043,F2008915,-42180.0,-42180.0,-42180.0,0.016247,0.007547,1.008572,-0.02251,0.33354,-0.02539,28.200000762939453,12.020000457763672,101.4000015258789,100414.0
1778036278569036789,1364,1778036278568349538,F2008915,-42200.0,-42200.0,-42200.0,0.029847,-0.016969,0.992021,0.00414,0.27452,-0.05646,28.299999237060547,12.100000381469727,101.43000030517578,100412.0
1778036278606371659,1365,1778036278605841613,F2008915,-42130.0,-42130.0,-42130.0,0.032998,0.009525,1.003324,0.02908,-0.86859,0.02272,28.299999237060547,12.09000015258789,101.43000030517578,100412.0
1778036278606407105,1366,1778036278605938044,F2008915,-42270.0,-42270.0,-42270.0,0.012211,0.015919,1.011324,-0.08949,-0.23011,0.05513,28.200000762939453,12.039999961853027,101.43000030517578,100412.0
1778036278606428819,1367,1778036278606034046,F2008915,-42000.0,-42000.0,-42000.0,0.024613,-0.020327,0.989413,-0.10962,0.55037,0.03765,28.200000762939453,12.140000343322754,101.43000030517578,100412.0
1778036278644108787,1368,1778036278643666823,F2008915,-42210.0,-42210.0,-42210.0,0.033454,-0.010412,0.990779,0.00634,-0.11641,0.0231,28.200000762939453,12.09000015258789,101.4000015258789,100414.0
1778036278644118565,1369,1778036278643758799,F2008915,-42210.0,-42210.0,-42210.0,0.014287,0.01282,1.006246,-0.0547,-0.33422,0.02638,28.200000762939453,12.09000015258789,101.4000015258789,100414.0
1778036278644154488,1370,1778036278643823386,F2008915,-42010.0,-42010.0,-42010.0,0.020654,-0.019064,0.990467,-0.12527,0.2771,0.03672,28.299999237060547,12.010000228881836,101.4000015258789,100414.0
1778036278644185066,1371,1778036278643875388,F2008915,-42280.0,-42280.0,-42280.0,0.03013,-0.022832,0.986568,0.10197,-0.3713,0.03359,28.299999237060547,12.130000114440918,101.4000015258789,100414.0
1778036278677845724,1372,1778036278677250956,F2008915,-41990.0,-41990.0,-41990.0,0.017559,0.014136,1.010154,0.04077,-0.84345,0.03469,28.299999237060547,12.15999984741211,101.37000274658203,100414.0
1778036278677885598,1374,1778036278677467919,F2008915,-42160.0,-42160.0,-42160.0,0.030246,-0.026572,0.990226,0.10394,0.55219,-0.05154,28.200000762939453,12.119999885559082,101.44000244140625,100412.0
1778036278715433857,1375,1778036278714911330,F2008915,-41920.0,-41920.0,-41920.0,0.029401,0.007638,1.00787,0.11183,-0.60682,-0.01924,28.200000762939453,12.109999656677246,101.44000244140625,100412.0
1778036278715464278,1376,1778036278714968608,F2008915,-42110.0,-42110.0,-42110.0,0.01821,0.000932,1.008858,-0.09407,0.18636,0.00584,28.299999237060547,12.050000190734863,101.3499984741211,100414.0
1778036278715483729,1378,1778036278715054087,F2008915,-41970.0,-41970.0,-41970.0,0.037418,-0.003905,1.001845,0.14274,-0.48905,-0.04557,28.299999237060547,12.029999732971191,101.37000274658203,100414.0
1778036278753149567,1379,1778036278752729574,F2008915,-42100.0,-42100.0,-42100.0,0.016771,0.011713,1.014261,-0.00395,-0.05499,-0.01761,28.399999618530273,12.079999923706055,101.37000274658203,100414.0
1778036278753185408,1380,1778036278752823462,F2008915,-41920.0,-41920.0,-41920.0,0.028138,-0.020904,0.995262,-0.06855,0.67082,-0.11415,28.399999618530273,11.979999542236328,101.37000274658203,100414.0
1778036278753196716,1381,1778036278752878526,F2008915,-42150.0,-42150.0,-42150.0,0.038429,-0.011582,0.992945,0.11981,-0.12869,-0.03849,28.299999237060547,12.140000343322754,101.37000274658203,100414.0
1778036278753228271,1382,1778036278752943374,F2008915,-42070.0,-42070.0,-42070.0,0.020192,0.020016,1.011382,0.01607,-0.54778,0.03248,28.299999237060547,12.0,101.45999908447266,100412.0
1778036278786678784,1383,1778036278786387988,F2008915,-41890.0,-41890.0,-41890.0,0.02437,-0.010264,0.99258,-0.16924,0.48894,0.00255,28.200000762939453,12.100000381469727,101.45999908447266,100412.0
1778036278786687207,1384,1778036278786450883,F2008915,-42130.0,-42130.0,-42130.0,0.03617,-0.021306,0.984099,0.07221,0.04875,-0.04592,28.200000762939453,12.010000228881836,101.43000030517578,100412.0
1778036278786690315,1385,1778036278786500449,F2008915,-41900.0,-41900.0,-41900.0,0.02624,0.014105,1.002147,0.11247,-0.76318,0.0531,28.299999237060547,12.109999656677246,101.43000030517578,100412.0
1778036278824571960,1386,1778036278824144697,F2008915,-41980.0,-41980.0,-41980.0,0.013282,-0.000941,0.998587,-0.07753,0.35909,0.05755,28.299999237060547,12.079999923706055,101.45999908447266,100412.0
1778036278824601057,1387,1778036278824239190,F2008915,-42040.0,-42040.0,-42040.0,0.029059,-0.02562,0.98361,-0.01425,0.43868,-0.01169,28.299999237060547,11.970000267028809,101.45999908447266,100412.0
1778036278824617186,1388,1778036278824298183,F2008915,-41870.0,-41870.0,-41870.0,0.028459,0.004508,0.99919,0.13577,-0.69154,0.03478,28.299999237060547,12.0600004196167,101.4000015258789,100414.0
1778036278824625854,1389,1778036278824351774,F2008915,-42050.0,-42050.0,-42050.0,0.010998,0.008737,1.006676,0.03223,-0.07701,0.03113,28.299999237060547,12.069999694824219,101.4000015258789,100414.0
1778036278858183774,1390,1778036278857734393,F2008915,-41920.0,-41920.0,-41920.0,0.026186,-0.022736,0.988734,0.01525,0.34109,-0.01404,28.200000762939453,12.010000228881836,101.48999786376953,100412.0
1778036278858219828,1391,1778036278857793713,F2008915,-42020.0,-42020.0,-42020.0,0.032946,-0.004787,0.998845,0.15572,-0.55154,-0.03245,28.299999237060547,12.100000381469727,101.48999786376953,100412.0
1778036278858235157,1392,1778036278857860041,F2008915,-42100.0,-42100.0,-42100.0,0.009042,0.018407,1.015891,0.00156,-0.34653,0.06174,28.299999237060547,12.0600004196167,101.5199966430664,100412.0
1778036278896092780,1393,1778036278895652773,F2008915,-41940.0,-41940.0,-41940.0,0.018668,-0.014765,0.997464,-0.15584,0.62047,-0.04616,28.299999237060547,12.020000457763672,101.5199966430664,100412.0
1778036278896115420,1394,1778036278895709484,F2008915,-42280.0,-42280.0,-42280.0,0.031268,-0.012346,0.994234,-0.00155,0.00044,-0.06628,28.200000762939453,12.050000190734863,101.5199966430664,100412.0
1778036278896126989,1395,1778036278895766237,F2008915,-42160.0,-42160.0,-42160.0,0.017504,0.018555,1.011447,-0.01116,-0.62394,0.01224,28.399999618530273,12.069999694824219,101.5199966430664,100412.0
1778036278896135798,1396,1778036278895797152,F2008915,-42090.0,-42090.0,-42090.0,0.016451,-0.007274,0.998778,-0.12283,0.4984,-0.07085,28.200000762939453,12.149999618530273,101.48999786376953,100412.0
1778036278933986592,1397,1778036278933341443,F2008915,-42340.0,-42340.0,-42340.0,0.030623,-0.021656,0.988291,0.03863,0.24653,-0.10961,28.200000762939453,12.039999961853027,101.48999786376953,100412.0
1778036278933998820,1398,1778036278933437719,F2008915,-42090.0,-42090.0,-42090.0,0.025235,0.010687,1.005372,0.03515,-0.69609,-0.06184,28.200000762939453,12.140000343322754,101.48999786376953,100412.0
1778036278934004427,1399,1778036278933496401,F2008915,-42220.0,-42220.0,-42220.0,0.014979,0.00019,1.004697,-0.10454,0.25756,-0.01934,28.200000762939453,12.039999961853027,101.48999786376953,100412.0
1778036278934008365,1400,1778036278933547086,F2008915,-42260.0,-42260.0,-42260.0,0.03321,-0.025706,0.988536,0.01546,0.51595,-0.07363,28.200000762939453,12.020000457763672,101.48999786376953,100412.0
1778036278967544171,1401,1778036278967028441,F2008915,-42120.0,-42120.0,-42120.0,0.039494,0.004431,1.004476,0.13322,-0.4812,-0.01429,28.200000762939453,12.09000015258789,101.48999786376953,100412.0
1778036278967560130,1402,1778036278967121412,F2008915,-42270.0,-42270.0,-42270.0,0.020968,0.015785,1.015073,-0.02901,0.01055,0.04988,28.299999237060547,12.09000015258789,101.5199966430664,100412.0
1778036278967572960,1403,1778036278967171885,F2008915,-42070.0,-42070.0,-42070.0,0.032311,-0.0187,0.995563,-0.06804,0.59639,-0.03271,28.200000762939453,12.020000457763672,101.5199966430664,100412.0
1778036279004938893,1404,1778036279004707361,F2008915,-42230.0,-42230.0,-42230.0,0.0434,-0.004971,0.99992,0.06642,-0.30237,-0.01925,28.299999237060547,12.09000015258789,101.48999786376953,100412.0
1778036279004944027,1405,1778036279004735987,F2008915,-42270.0,-42270.0,-42270.0,0.019657,0.01953,1.015013,-0.08628,-0.51023,0.05731,28.200000762939453,12.050000190734863,101.48999786376953,100412.0
1778036279004949629,1406,1778036279004763658,F2008915,-42090.0,-42090.0,-42090.0,0.022758,-0.01527,0.99569,-0.21583,0.61819,0.02882,28.399999618530273,12.029999732971191,101.48999786376953,100412.0
1778036279004954311,1407,1778036279004775253,F2008915,-42260.0,-42260.0,-42260.0,0.037473,-0.018354,0.988952,-0.03518,0.26769,-0.01018,28.200000762939453,12.039999961853027,101.48999786376953,100412.0
1778036279042958501,1408,1778036279042539470,F2008915,-41960.0,-41960.0,-41960.0,0.023872,0.012346,1.004093,-0.06307,-0.44221,0.02722,28.299999237060547,12.029999732971191,101.48999786376953,100412.0
1778036279042990666,1409,1778036279042634266,F2008915,-41900.0,-41900.0,-41900.0,0.021276,-0.009695,0.993952,-0.17402,0.54664,-0.00714,28.200000762939453,12.079999923706055,101.48999786376953,100412.0
1778036279043006898,1410,1778036279042688813,F2008915,-42080.0,-42080.0,-42080.0,0.038595,-0.026264,0.980825,-0.05855,0.21934,-0.02015,28.200000762939453,12.050000190734863,101.5199966430664,100412.0
1778036279043021183,1411,1778036279042741354,F2008915,-41840.0,-41840.0,-41840.0,0.032295,0.004439,0.994772,0.0139,-0.77405,0.00286,28.200000762939453,12.130000114440918,101.5199966430664,100412.0
1778036279076618638,1412,1778036279076158428,F2008915,-42040.0,-42040.0,-42040.0,0.019139,-0.00093,0.997878,-0.11527,0.25416,0.01628,28.200000762939453,12.069999694824219,101.5199966430664,100412.0
1778036279076667323,1414,1778036279076298242,F2008915,-41880.0,-41880.0,-41880.0,0.040445,-0.005132,0.991833,-0.00249,-0.29995,-0.01501,28.200000762939453,12.079999923706055,101.5199966430664,100412.0
1778036279114343818,1415,1778036279113980644,F2008915,-42000.0,-42000.0,-42000.0,0.019407,0.002036,1.003086,0.00067,0.07432,0.05465,28.200000762939453,12.079999923706055,101.5199966430664,100412.0
1778036279114377283,1416,1778036279114075312,F2008915,-41770.0,-41770.0,-41770.0,0.029343,-0.031116,0.986376,0.05786,0.69268,-0.01786,28.299999237060547,12.010000228881836,101.5199966430664,100412.0
1778036279114395188,1417,1778036279114134846,F2008915,-41990.0,-41990.0,-41990.0,0.035692,-0.02246,0.988349,0.24788,-0.17252,-0.03368,28.299999237060547,12.069999694824219,101.5199966430664,100412.0
1778036279114648169,1418,1778036279114187869,F2008915,-41910.0,-41910.0,-41910.0,0.017822,0.004364,1.007065,0.14332,-0.33995,0.04469,28.200000762939453,12.079999923706055,101.45999908447266,100412.0
1778036279147926519,1419,1778036279147633954,F2008915,-41740.0,-41740.0,-41740.0,0.014894,-0.021228,0.997437,0.10089,0.65718,0.00136,28.200000762939453,12.100000381469727,101.45999908447266,100412.0
1778036279147939088,1420,1778036279147727310,F2008915,-42050.0,-42050.0,-42050.0,0.025307,-0.025111,0.992464,0.2775,0.35851,-0.02292,28.200000762939453,12.109999656677246,101.4000015258789,100414.0
1778036279147987519,1421,1778036279147783407,F2008915,-41810.0,-41810.0,-41810.0,0.013838,0.010277,1.013453,0.235,-0.37062,0.02449,28.200000762939453,12.050000190734863,101.4000015258789,100414.0
1778036279185565346,1422,1778036279185365803,F2008915,-41880.0,-41880.0,-41880.0,0.008442,-0.003135,1.008815,0.09558,0.49214,-0.0363,28.299999237060547,12.0600004196167,101.5199966430664,100412.0
1778036279185573823,1423,1778036279185424221,F2008915,-42030.0,-42030.0,-42030.0,0.019594,-0.020635,0.994798,0.16634,0.28637,-0.12364,28.299999237060547,12.109999656677246,101.5199966430664,100412.0
1778036279185576719,1424,1778036279185459012,F2008915,-41840.0,-41840.0,-41840.0,0.018866,0.011123,1.010291,0.20689,-0.69023,-0.0646,28.299999237060547,12.0,101.45999908447266,100412.0
1778036279185579324,1425,1778036279185492076,F2008915,-42050.0,-42050.0,-42050.0,0.003896,0.013182,1.01355,0.04032,0.10334,-0.03233,28.200000762939453,11.970000267028809,101.45999908447266,100412.0
1778036279223422569,1426,1778036279223164126,F2008915,-41910.0,-41910.0,-41910.0,0.015138,-0.01341,0.996099,0.07585,0.65397,-0.07964,28.200000762939453,12.069999694824219,101.43000030517578,100412.0
1778036279223456461,1427,1778036279223259319,F2008915,-41870.0,-41870.0,-41870.0,0.026062,0.004739,1.000213,0.16922,-0.20227,-0.10086,28.200000762939453,12.0600004196167,101.43000030517578,100412.0
1778036279223496609,1428,1778036279223317051,F2008915,-42020.0,-42020.0,-42020.0,0.01719,0.019699,1.010928,0.04898,-0.21993,0.01849,28.299999237060547,12.100000381469727,101.45999908447266,100412.0
1778036279223647423,1429,1778036279223369289,F2008915,-41840.0,-41840.0,-41840.0,0.027257,-0.011403,0.993253,0.03597,0.40167,0.01019,28.100000381469727,12.140000343322754,101.45999908447266,100412.0
1778036279257095805,1430,1778036279256845296,F2008915,-42070.0,-42070.0,-42070.0,0.031844,-0.003749,0.994071,0.16101,-0.30783,-0.04181,28.200000762939453,12.0600004196167,101.48999786376953,100412.0
1778036279257158772,1431,1778036279257006002,F2008915,-41990.0,-41990.0,-41990.0,0.020699,0.028194,1.014647,0.05569,-0.65867,-0.02168,28.200000762939453,12.079999923706055,101.48999786376953,100412.0
1778036279257394728,1432,1778036279257127066,F2008915,-41900.0,-41900.0,-41900.0,0.013722,0.0057,1.00385,-0.079,0.3975,0.01613,28.299999237060547,12.109999656677246,101.55000305175781,100412.0
1778036279294743175,1433,1778036279294537590,F2008915,-42120.0,-42120.0,-42120.0,0.020133,-0.006136,0.997327,-0.05591,0.16609,-0.00602,28.299999237060547,12.130000114440918,101.55000305175781,100412.0
1778036279294749985,1434,1778036279294596386,F2008915,-41890.0,-41890.0,-41890.0,0.017753,0.018953,1.010461,0.02357,-0.70478,0.06014,28.200000762939453,12.119999885559082,101.55000305175781,100412.0
1778036279294752589,1435,1778036279294642322,F2008915,-42010.0,-42010.0,-42010.0,0.009938,0.00506,1.006005,-0.17136,0.32495,0.07697,28.200000762939453,12.020000457763672,101.55000305175781,100412.0
1778036279295281949,1436,1778036279294681127,F2008915,-42040.0,-42040.0,-42040.0,0.025465,-0.020345,0.986831,-0.16249,0.39336,0.04537,28.299999237060547,12.109999656677246,101.61000061035156,100410.0
1778036279332624041,1437,1778036279332262022,F2008915,-41890.0,-41890.0,-41890.0,0.03045,0.000421,0.996149,-0.08145,-0.6146,-0.02729,28.299999237060547,12.0600004196167,101.61000061035156,100410.0
1778036279332652183,1438,1778036279332387844,F2008915,-42090.0,-42090.0,-42090.0,0.02239,-0.00044,0.999203,-0.23214,-0.09789,0.01946,28.399999618530273,12.1899995803833,101.5199966430664,100412.0
1778036279333383253,1439,1778036279332485087,F2008915,-41970.0,-41970.0,-41970.0,0.026733,-0.033063,0.980374,-0.14001,0.50357,-0.01358,28.299999237060547,12.039999961853027,101.5199966430664,100412.0
1778036279333394047,1440,1778036279332588410,F2008915,-42140.0,-42140.0,-42140.0,0.037207,-0.018997,0.986589,0.05394,-0.44936,-0.05974,28.299999237060547,12.079999923706055,101.48999786376953,100412.0
1778036279366268371,1441,1778036279365914260,F2008915,-42220.0,-42220.0,-42220.0,0.018841,0.007528,1.006484,-0.00884,-0.4932,0.03212,28.299999237060547,12.069999694824219,101.48999786376953,100412.0
1778036279366288249,1442,1778036279366014077,F2008915,-42010.0,-42010.0,-42010.0,0.01663,-0.016339,0.997217,-0.07868,0.11959,-0.03147,28.200000762939453,12.15999984741211,101.45999908447266,100412.0
1778036279366297495,1443,1778036279366103457,F2008915,-42270.0,-42270.0,-42270.0,0.030279,-0.017658,0.992649,0.07349,-0.20782,0.00386,28.200000762939453,12.140000343322754,101.45999908447266,100412.0
1778036279404252143,1444,1778036279403875446,F2008915,-42130.0,-42130.0,-42130.0,0.025662,0.010831,1.011406,0.07728,-0.38565,0.0113,28.200000762939453,12.149999618530273,101.45999908447266,100412.0
1778036279404264599,1445,1778036279403979976,F2008915,-42110.0,-42110.0,-42110.0,0.025355,-0.010123,0.999358,-0.06667,0.65482,-0.01978,28.299999237060547,12.079999923706055,101.45999908447266,100412.0
1778036279404269702,1446,1778036279404052958,F2008915,-42310.0,-42310.0,-42310.0,0.037154,-0.028583,0.987197,0.05218,0.28767,-0.06826,28.200000762939453,12.109999656677246,101.43000030517578,100412.0
1778036279404273778,1447,1778036279404146884,F2008915,-42030.0,-42030.0,-42030.0,0.026373,-0.002732,1.001029,0.13794,-0.95208,-0.02652,28.200000762939453,12.09000015258789,101.43000030517578,100412.0
1778036279437997817,1448,1778036279437586223,F2008915,-42230.0,-42230.0,-42230.0,0.014153,-0.005511,1.004105,0.04996,-0.29647,0.01351,28.200000762939453,12.109999656677246,101.4000015258789,100414.0
1778036279438013379,1449,1778036279437710516,F2008915,-42180.0,-42180.0,-42180.0,0.023484,-0.02792,0.989513,0.05481,0.16219,-0.01933,28.200000762939453,12.140000343322754,101.4000015258789,100414.0
1778036279438018622,1450,1778036279437805313,F2008915,-42090.0,-42090.0,-42090.0,0.027579,-0.007424,0.997534,0.2458,-0.33509,-0.04288,28.200000762939453,12.130000114440918,101.43000030517578,100412.0
1778036279475663782,1451,1778036279475223663,F2008915,-42290.0,-42290.0,-42290.0,0.017294,0.008933,1.00833,0.10157,0.04944,-0.00849,28.200000762939453,12.130000114440918,101.43000030517578,100412.0
1778036279476054103,1452,1778036279475338405,F2008915,-42020.0,-42020.0,-42020.0,0.026986,-0.018945,0.992023,0.03016,0.60544,-0.06693,28.200000762939453,12.050000190734863,101.43000030517578,100412.0
1778036279476085111,1453,1778036279475428843,F2008915,-42190.0,-42190.0,-42190.0,0.032174,-0.009193,0.997493,0.20826,-0.53279,-0.09614,28.200000762939453,12.079999923706055,101.43000030517578,100412.0
1778036279476113477,1454,1778036279475640111,F2008915,-42210.0,-42210.0,-42210.0,0.007041,0.017093,1.016816,0.14051,-0.93392,-0.06008,28.200000762939453,12.029999732971191,101.43000030517578,100412.0
1778036279513034606,1455,1778036279512847551,F2008915,-41970.0,-41970.0,-41970.0,0.016933,-0.004773,1.002905,0.12094,0.07344,-0.06296,28.299999237060547,11.979999542236328,101.43000030517578,100412.0
1778036279513037748,1456,1778036279512902542,F2008915,-42190.0,-42190.0,-42190.0,0.02173,-0.007275,1.000485,0.12295,-0.01113,-0.08163,28.299999237060547,11.970000267028809,101.37000274658203,100414.0
1778036279513039301,1457,1778036279512937458,F2008915,-41970.0,-41970.0,-41970.0,0.01232,0.014408,1.010174,0.15879,-0.58045,-0.08287,28.200000762939453,12.149999618530273,101.37000274658203,100414.0
1778036279513041126,1458,1778036279512972740,F2008915,-41990.0,-41990.0,-41990.0,0.028558,0.00731,1.004591,-0.00875,0.70914,-0.10549,28.200000762939453,12.079999923706055,101.43000030517578,100412.0
1778036279547042515,1459,1778036279546644111,F2008915,-42080.0,-42080.0,-42080.0,0.027039,-0.020068,0.986826,0.02138,0.22448,-0.05864,28.200000762939453,12.069999694824219,101.43000030517578,100412.0
1778036279547070056,1460,1778036279546748253,F2008915,-41910.0,-41910.0,-41910.0,0.035578,0.003991,0.995127,0.10102,-1.0529,-0.09418,28.200000762939453,12.109999656677246,101.47000122070312,100412.0
1778036279547079157,1461,1778036279546869530,F2008915,-42130.0,-42130.0,-42130.0,0.036711,0.011648,1.003464,-0.11117,-0.17226,0.02562,28.200000762939453,12.109999656677246,101.47000122070312,100412.0
1778036279584823203,1462,1778036279584401753,F2008915,-41990.0,-41990.0,-41990.0,0.012556,-0.021642,0.990071,-0.10616,-0.14568,-0.0071,28.200000762939453,12.010000228881836,101.47000122070312,100412.0
1778036279584865970,1463,1778036279584546719,F2008915,-42000.0,-42000.0,-42000.0,0.038199,0.002661,0.996038,0.09965,-0.31674,0.02032,28.299999237060547,12.100000381469727,101.47000122070312,100412.0
1778036279584876329,1464,1778036279584650095,F2008915,-42140.0,-42140.0,-42140.0,0.022407,0.01842,1.010204,-0.0289,-0.37381,0.06923,28.200000762939453,12.029999732971191,101.5,100412.0
1778036279585259492,1465,1778036279584786703,F2008915,-41880.0,-41880.0,-41880.0,0.022889,-0.012902,0.990448,-0.15011,0.52803,0.00205,28.200000762939453,11.970000267028809,101.5,100412.0
1778036279618448876,1466,1778036279618115305,F2008915,-42120.0,-42120.0,-42120.0,0.04902,-0.010127,0.99049,0.04499,-0.2786,0.09716,28.200000762939453,12.039999961853027,101.52999877929688,100412.0
1778036279618469430,1467,1778036279618224622,F2008915,-42010.0,-42010.0,-42010.0,0.01436,0.010833,1.005158,-0.01376,-0.62627,0.16668,28.200000762939453,12.130000114440918,101.52999877929688,100412.0
1778036279618477123,1468,1778036279618342402,F2008915,-41920.0,-41920.0,-41920.0,0.03235,-0.011825,0.987731,-0.1111,0.53045,0.13822,28.100000381469727,11.989999771118164,101.62999725341797,100410.0
1778036279656091151,1469,1778036279655756340,F2008915,-42140.0,-42140.0,-42140.0,0.049942,-0.02034,0.986877,0.01577,-0.04478,0.1214,28.200000762939453,12.079999923706055,101.62999725341797,100410.0
1778036279656150758,1470,1778036279655872659,F2008915,-41920.0,-41920.0,-41920.0,0.015469,-0.001418,1.000343,0.0482,-0.67821,0.08403,28.200000762939453,12.109999656677246,101.62999725341797,100410.0
1778036279656163733,1471,1778036279656008994,F2008915,-42040.0,-42040.0,-42040.0,0.01648,-0.007133,0.999613,-0.04965,0.04963,0.11719,28.299999237060547,12.170000076293945,101.62999725341797,100410.0
1778036279656423178,1472,1778036279656102555,F2008915,-42080.0,-42080.0,-42080.0,0.031814,-0.026121,0.990833,0.07346,0.45593,0.09927,28.299999237060547,12.029999732971191,101.6500015258789,100410.0
1778036279693860428,1473,1778036279693585138,F2008915,-41920.0,-41920.0,-41920.0,0.002538,0.007633,1.011894,0.19237,-0.99089,0.04944,28.299999237060547,12.079999923706055,101.6500015258789,100410.0
1778036279693876292,1476,1778036279693733169,F2008915,-42070.0,-42070.0,-42070.0,0.035078,-0.019903,0.988349,0.02582,0.11208,-0.0954,28.200000762939453,12.109999656677246,101.70999908447266,100410.0
1778036279727650707,1477,1778036279727207193,F2008915,-42230.0,-42230.0,-42230.0,0.053239,0.005164,1.000971,0.00381,0.24773,-0.00962,28.299999237060547,12.09000015258789,101.70999908447266,100410.0
1778036279727680318,1478,1778036279727327580,F2008915,-42050.0,-42050.0,-42050.0,0.016124,-0.026686,0.9877,-0.06132,0.71439,-0.06621,28.299999237060547,12.1899995803833,101.75,100408.0
1778036279727691187,1479,1778036279727472403,F2008915,-42270.0,-42270.0,-42270.0,0.029496,-0.025165,0.988535,0.14843,-0.47447,-0.05046,28.100000381469727,12.09000015258789,101.75,100408.0
1778036279765443879,1480,1778036279764928272,F2008915,-42190.0,-42190.0,-42190.0,-0.010142,0.017501,1.020189,0.1767,-2.14627,0.06827,28.200000762939453,12.109999656677246,101.72000122070312,100410.0
1778036279765475300,1481,1778036279765035895,F2008915,-42140.0,-42140.0,-42140.0,0.002714,-0.004802,1.004572,0.02189,-0.0515,-0.0248,28.299999237060547,12.149999618530273,101.72000122070312,100410.0
1778036279765500905,1482,1778036279765173996,F2008915,-42310.0,-42310.0,-42310.0,0.025365,-0.015948,0.992684,0.09663,0.2186,-0.03312,28.200000762939453,12.149999618530273,101.72000122070312,100410.0
1778036279765587342,1483,1778036279765297240,F2008915,-42080.0,-42080.0,-42080.0,0.040691,0.004757,1.000456,0.14472,0.49205,-0.05861,28.299999237060547,12.09000015258789,101.72000122070312,100410.0
1778036279802958330,1484,1778036279802717252,F2008915,-42270.0,-42270.0,-42270.0,0.040249,0.004357,0.999327,0.01992,0.62419,-0.10556,28.299999237060547,12.039999961853027,101.72000122070312,100410.0
1778036279802965070,1485,1778036279802788975,F2008915,-42210.0,-42210.0,-42210.0,0.067226,-0.024876,0.977398,0.07864,0.53886,-0.06091,28.299999237060547,12.100000381469727,101.72000122070312,100410.0
1778036279802967670,1486,1778036279802833988,F2008915,-42090.0,-42090.0,-42090.0,0.02638,-0.011657,0.997826,0.26293,-1.81244,0.02616,28.200000762939453,12.140000343322754,101.68000030517578,100410.0
1778036279802970005,1487,1778036279802896595,F2008915,-42270.0,-42270.0,-42270.0,-0.006422,0.007675,1.012491,0.31046,-1.49075,0.08495,28.200000762939453,12.079999923706055,101.68000030517578,100410.0
1778036279836724885,1488,1778036279836350449,F2008915,-42100.0,-42100.0,-42100.0,-0.009807,0.000922,1.012345,0.19468,-0.52584,0.07215,28.299999237060547,12.130000114440918,101.6500015258789,100410.0
1778036279836730696,1489,1778036279836417678,F2008915,-42240.0,-42240.0,-42240.0,-0.005537,0.007387,1.004987,0.13754,0.08699,-0.01692,28.200000762939453,12.170000076293945,101.6500015258789,100410.0
1778036279836736886,1490,1778036279836467548,F2008915,-42290.0,-42290.0,-42290.0,0.047835,0.0132,1.003715,-0.02315,0.63669,-0.10749,28.299999237060547,12.050000190734863,101.62000274658203,100410.0
1778036279874710197,1491,1778036279874176169,F2008915,-42110.0,-42110.0,-42110.0,0.095966,-0.014713,0.977261,-0.14781,1.98731,0.00797,28.299999237060547,12.050000190734863,101.62000274658203,100410.0
1778036279874735133,1492,1778036279874267472,F2008915,-42300.0,-42300.0,-42300.0,0.071016,-0.049335,0.963677,0.08781,0.25855,0.11791,28.200000762939453,12.170000076293945,101.6500015258789,100410.0
1778036279874760640,1493,1778036279874333622,F2008915,-42120.0,-42120.0,-42120.0,0.021167,0.003328,1.001474,0.33308,-1.884,0.02682,28.200000762939453,12.039999961853027,101.6500015258789,100410.0
1778036279874778427,1494,1778036279874397208,F2008915,-42190.0,-42190.0,-42190.0,0.009937,0.020662,1.01683,0.23899,-2.04158,0.16447,28.200000762939453,12.140000343322754,101.58999633789062,100410.0
1778036279908456137,1495,1778036279907947648,F2008915,-42350.0,-42350.0,-42350.0,-0.040966,-0.004088,1.009887,0.08421,-1.63626,-0.04346,28.100000381469727,12.010000228881836,101.58999633789062,100410.0
1778036279908469958,1496,1778036279908078643,F2008915,-42140.0,-42140.0,-42140.0,0.029757,0.033595,1.020164,0.0187,0.92057,-0.09605,28.299999237060547,11.989999771118164,101.52999877929688,100412.0
1778036279908566304,1497,1778036279908195303,F2008915,-42320.0,-42320.0,-42320.0,0.041791,0.016965,1.01092,-0.20729,2.66079,0.04815,28.399999618530273,12.029999732971191,101.52999877929688,100412.0
1778036279946314990,1498,1778036279945716568,F2008915,-42130.0,-42130.0,-42130.0,0.067485,-0.032687,0.97209,-0.07569,4.00083,-0.0628,28.299999237060547,12.109999656677246,101.5199966430664,100412.0
1778036279946349927,1499,1778036279945845461,F2008915,-41990.0,-41990.0,-41990.0,0.093664,0.000317,0.986577,0.0799,-1.27809,-0.10006,28.200000762939453,12.029999732971191,101.5199966430664,100412.0
1778036279946382987,1500,1778036279945987859,F2008915,-42200.0,-42200.0,-42200.0,0.039958,0.019397,1.008655,-0.03364,-2.40411,0.03004,28.299999237060547,12.050000190734863,101.5199966430664,100412.0
1778036279946391176,1501,1778036279946094089,F2008915,-41960.0,-41960.0,-41960.0,0.004522,-0.016403,0.996282,-0.14445,-2.48094,-0.03102,28.200000762939453,12.130000114440918,101.5199966430664,100412.0
1778036279983764922,1502,1778036279983383880,F2008915,-42120.0,-42120.0,-42120.0,0.009146,-0.008787,1.003926,-0.01829,0.75461,-0.08025,28.200000762939453,12.050000190734863,101.5199966430664,100412.0
1778036279983807052,1503,1778036279983538315,F2008915,-42060.0,-42060.0,-42060.0,0.030395,0.002951,1.004431,-0.10225,2.19197,0.0156,28.200000762939453,12.050000190734863,101.5199966430664,100412.0
1778036279983819649,1504,1778036279983629054,F2008915,-41890.0,-41890.0,-41890.0,0.033953,-0.019411,0.989159,-0.04928,3.08269,0.04508,28.200000762939453,12.15999984741211,101.5199966430664,100412.0
1778036279984390940,1505,1778036279983745695,F2008915,-42120.0,-42120.0,-42120.0,0.089196,-0.009973,0.984216,0.13573,0.25334,0.04654,28.200000762939453,12.149999618530273,101.5199966430664,100412.0
1778036280017504667,1506,1778036280017070425,F2008915,-41910.0,-41910.0,-41910.0,0.028946,0.028541,1.015017,0.0352,-2.66897,0.21107,28.299999237060547,12.130000114440918,101.45999908447266,100412.0
1778036280017519688,1507,1778036280017151683,F2008915,-41990.0,-41990.0,-41990.0,0.026624,0.006437,1.004012,-0.19657,-0.73643,0.2604,28.200000762939453,12.130000114440918,101.45999908447266,100412.0
1778036280017523605,1508,1778036280017194821,F2008915,-42050.0,-42050.0,-42050.0,-0.003408,-0.020494,0.997432,-0.1641,-0.29392,0.15384,28.200000762939453,12.09000015258789,101.37000274658203,100414.0
1778036280055261412,1509,1778036280054762798,F2008915,-41810.0,-41810.0,-41810.0,0.01562,-0.009638,0.999862,-0.00055,1.04877,0.13554,28.200000762939453,12.09000015258789,101.37000274658203,100414.0
1778036280055300840,1510,1778036280054818454,F2008915,-42030.0,-42030.0,-42030.0,0.008982,-0.018138,0.992306,-0.04672,1.14072,0.18145,28.200000762939453,12.130000114440918,101.37000274658203,100414.0
1778036280055337633,1511,1778036280054871394,F2008915,-41860.0,-41860.0,-41860.0,0.014071,-0.028354,0.982888,0.11325,1.93245,0.10483,28.200000762939453,12.029999732971191,101.37000274658203,100414.0
1778036280055363482,1512,1778036280054957411,F2008915,-41870.0,-41870.0,-41870.0,0.041895,0.00162,0.99179,0.23844,-0.65275,0.09489,28.200000762939453,12.069999694824219,101.4000015258789,100414.0
1778036280092630476,1513,1778036280092403923,F2008915,-42010.0,-42010.0,-42010.0,0.008837,0.015571,1.008765,0.02528,-0.70202,0.22489,28.299999237060547,12.029999732971191,101.4000015258789,100414.0
1778036280092634285,1516,1778036280092459859,F2008915,-41860.0,-41860.0,-41860.0,-0.004787,-0.006648,1.010666,0.10954,0.47748,0.02978,28.200000762939453,12.010000228881836,101.5199966430664,100412.0
1778036280126463526,1517,1778036280126105016,F2008915,-41820.0,-41820.0,-41820.0,-0.009583,-0.016189,1.004319,0.15033,1.69529,0.02032,28.200000762939453,12.050000190734863,101.5199966430664,100412.0
1778036280126478944,1519,1778036280126174058,F2008915,-41720.0,-41720.0,-41720.0,0.022604,0.023507,1.013061,0.12491,-1.6161,0.03978,28.200000762939453,11.989999771118164,101.48999786376953,100412.0
1778036280164358485,1520,1778036280163877608,F2008915,-41950.0,-41950.0,-41950.0,0.013381,0.003927,1.005921,-0.10507,-0.60007,0.03406,28.200000762939453,12.119999885559082,101.43000030517578,100412.0
1778036280164373633,1522,1778036280163984414,F2008915,-41760.0,-41760.0,-41760.0,0.010681,-0.007074,1.002753,0.11871,0.18965,-0.05498,28.200000762939453,12.020000457763672,101.45999908447266,100412.0
1778036280164378964,1523,1778036280164039078,F2008915,-42040.0,-42040.0,-42040.0,0.008184,-0.00209,1.004072,0.08222,0.27216,0.01412,28.399999618530273,12.140000343322754,101.45999908447266,100412.0
1778036280197839931,1524,1778036280197575750,F2008915,-41870.0,-41870.0,-41870.0,0.024801,-0.017886,0.991104,0.04428,0.67426,-0.05272,28.299999237060547,12.0,101.45999908447266,100412.0
1778036280198038749,1526,1778036280197661743,F2008915,-42040.0,-42040.0,-42040.0,0.031807,0.022057,1.010967,0.05581,-0.45932,0.00164,28.299999237060547,12.15999984741211,101.43000030517578,100412.0
1778036280235781633,1527,1778036280235293308,F2008915,-41860.0,-41860.0,-41860.0,0.037821,-0.004504,0.996963,-0.10023,0.05138,0.00361,28.200000762939453,12.140000343322754,101.43000030517578,100412.0
1778036280235802119,1528,1778036280235357612,F2008915,-42110.0,-42110.0,-42110.0,0.026994,-0.014389,0.992413,0.12681,-0.72728,0.03488,28.200000762939453,12.0,101.4000015258789,100414.0
1778036280235819727,1529,1778036280235410249,F2008915,-41980.0,-41980.0,-41980.0,0.023172,0.011221,1.009075,0.07629,-1.1822,0.0962,28.299999237060547,12.0600004196167,101.4000015258789,100414.0
1778036280235857637,1530,1778036280235489326,F2008915,-42070.0,-42070.0,-42070.0,0.007176,-0.001197,1.00713,0.04994,-0.12066,0.12025,28.200000762939453,12.079999923706055,101.4000015258789,100414.0
1778036280273460691,1531,1778036280273015148,F2008915,-42270.0,-42270.0,-42270.0,0.03111,-0.008241,0.99799,0.12253,0.73813,-0.05712,28.200000762939453,12.069999694824219,101.4000015258789,100414.0
1778036280273472100,1533,1778036280273098340,F2008915,-42220.0,-42220.0,-42220.0,0.030841,0.024259,1.011234,-0.2264,0.17457,0.00359,28.200000762939453,12.100000381469727,101.33999633789062,100414.0
1778036280273494347,1534,1778036280273139956,F2008915,-42230.0,-42230.0,-42230.0,0.043866,-0.007476,0.992196,-0.25766,-0.66589,-0.04892,28.200000762939453,12.050000190734863,101.4000015258789,100414.0
1778036280307307770,1535,1778036280306834064,F2008915,-42080.0,-42080.0,-42080.0,0.03783,0.002392,0.997076,-0.18197,-1.03819,-0.04413,28.200000762939453,12.0,101.4000015258789,100414.0
1778036280307358940,1536,1778036280306940149,F2008915,-42270.0,-42270.0,-42270.0,0.029729,0.000696,0.996737,-0.234,0.08051,0.03706,28.0,12.050000190734863,101.37000274658203,100414.0
1778036280307386820,1537,1778036280307005301,F2008915,-42070.0,-42070.0,-42070.0,0.032506,-0.02223,0.983338,-0.22369,1.14924,-0.03512,28.200000762939453,12.039999961853027,101.37000274658203,100414.0
1778036280345098414,1538,1778036280344607007,F2008915,-42150.0,-42150.0,-42150.0,0.054441,-0.009853,0.985029,-0.02871,0.05728,-0.09422,28.200000762939453,12.119999885559082,101.37000274658203,100414.0
1778036280345120805,1539,1778036280344683232,F2008915,-42010.0,-42010.0,-42010.0,0.024748,0.012458,1.004095,-0.18131,-0.7707,0.04748,28.200000762939453,12.09000015258789,101.37000274658203,100414.0
1778036280345153962,1540,1778036280344727256,F2008915,-41950.0,-41950.0,-41950.0,0.034111,-0.010387,0.991455,-0.20974,0.09284,-0.00294,28.299999237060547,11.970000267028809,101.33999633789062,100414.0
1778036280345170170,1541,1778036280344790068,F2008915,-42170.0,-42170.0,-42170.0,0.046045,-0.01933,0.987857,-0.08845,-0.17261,0.04803,28.100000381469727,12.09000015258789,101.33999633789062,100414.0
1778036280382853816,1542,1778036280382301045,F2008915,-41880.0,-41880.0,-41880.0,0.038547,0.005729,1.003587,-0.03049,-0.04958,0.13381,28.200000762939453,12.050000190734863,101.33999633789062,100414.0
1778036280382870479,1544,1778036280382467440,F2008915,-42110.0,-42110.0,-42110.0,0.036241,-0.023162,0.990699,-0.02534,0.55958,0.04468,28.200000762939453,12.09000015258789,101.30999755859375,100414.0
1778036280382877345,1545,1778036280382614050,F2008915,-41840.0,-41840.0,-41840.0,0.032558,0.00164,1.002806,0.02708,-0.65539,0.11879,28.200000762939453,12.079999923706055,101.30999755859375,100414.0
1778036280416410901,1546,1778036280416054118,F2008915,-42090.0,-42090.0,-42090.0,0.010812,0.00228,1.008081,-0.08759,-0.03276,0.13661,28.200000762939453,12.119999885559082,101.30999755859375,100414.0
1778036280416432155,1547,1778036280416188532,F2008915,-41960.0,-41960.0,-41960.0,0.028457,-0.027282,0.990709,-0.04526,0.32625,0.06647,28.299999237060547,12.130000114440918,101.30999755859375,100414.0
1778036280416480425,1548,1778036280416276873,F2008915,-41920.0,-41920.0,-41920.0,0.031012,-0.012087,0.996349,0.08568,-0.1909,0.09487,28.100000381469727,12.050000190734863,101.27999877929688,100414.0
1778036280454132959,1549,1778036280453770563,F2008915,-42030.0,-42030.0,-42030.0,0.018901,0.007314,1.008081,-0.04786,0.32192,0.14813,28.200000762939453,12.15999984741211,101.27999877929688,100414.0
1778036280454383021,1550,1778036280454034737,F2008915,-41870.0,-41870.0,-41870.0,0.0211,-0.017715,0.993166,-0.02934,0.92724,0.11153,28.299999237060547,12.020000457763672,101.33999633789062,100414.0
1778036280454412287,1551,1778036280454172170,F2008915,-42080.0,-42080.0,-42080.0,0.031578,-0.013053,0.99384,0.00469,0.04232,0.00215,28.200000762939453,12.020000457763672,101.33999633789062,100414.0
1778036280454424185,1552,1778036280454279465,F2008915,-41920.0,-41920.0,-41920.0,0.014245,0.010892,1.008327,-0.05892,-0.88377,0.03729,28.200000762939453,12.069999694824219,101.33999633789062,100414.0
1778036280488092527,1553,1778036280487544246,F2008915,-41870.0,-41870.0,-41870.0,0.007028,-0.011585,0.997224,-0.14708,0.16115,-0.04917,28.200000762939453,12.100000381469727,101.33999633789062,100414.0
1778036280488122639,1554,1778036280487692764,F2008915,-42180.0,-42180.0,-42180.0,0.022887,-0.022248,0.987722,-0.01812,0.33808,-0.10157,28.299999237060547,12.130000114440918,101.4000015258789,100414.0
1778036280488130006,1555,1778036280487800820,F2008915,-41870.0,-41870.0,-41870.0,0.02089,0.002768,1.000005,0.09614,0.29393,-0.05867,28.200000762939453,12.0600004196167,101.4000015258789,100414.0
1778036280525665129,1556,1778036280525275434,F2008915,-42010.0,-42010.0,-42010.0,0.021851,-0.004378,0.99579,0.01013,0.98657,0.0038,28.200000762939453,12.09000015258789,101.45999908447266,100412.0
1778036280525892621,1557,1778036280525563075,F2008915,-42100.0,-42100.0,-42100.0,0.036985,-0.019466,0.985586,0.15747,0.44838,-0.04674,28.299999237060547,12.069999694824219,101.45999908447266,100412.0
1778036280525906195,1558,1778036280525698085,F2008915,-41880.0,-41880.0,-41880.0,0.034221,0.002281,0.996893,0.15865,-0.96406,0.02504,28.299999237060547,12.109999656677246,101.45999908447266,100412.0
1778036280526369841,1559,1778036280525812008,F2008915,-42070.0,-42070.0,-42070.0,0.018613,0.003351,1.00376,0.04068,-0.31831,0.03678,28.200000762939453,12.170000076293945,101.45999908447266,100412.0
1778036280563336888,1560,1778036280563015071,F2008915,-41980.0,-41980.0,-41980.0,0.024759,-0.020174,0.992975,0.10305,0.67674,0.04446,28.200000762939453,12.020000457763672,101.48999786376953,100412.0
1778036280563350658,1561,1778036280563151947,F2008915,-42120.0,-42120.0,-42120.0,0.034163,-0.003323,0.999407,0.22014,0.20741,0.00255,28.200000762939453,12.15999984741211,101.48999786376953,100412.0
1778036280563462077,1562,1778036280563279603,F2008915,-42170.0,-42170.0,-42170.0,0.016988,0.020133,1.01523,0.11225,0.09431,0.07126,28.100000381469727,12.130000114440918,101.55000305175781,100412.0
1778036280563806658,1563,1778036280563390605,F2008915,-42010.0,-42010.0,-42010.0,0.022148,-0.003235,1.001784,0.0716,0.47884,0.05024,28.200000762939453,12.1899995803833,101.55000305175781,100412.0
1778036280597369933,1564,1778036280596680447,F2008915,-42330.0,-42330.0,-42330.0,0.02835,-0.0049,0.997986,0.07174,-0.30638,0.02395,28.100000381469727,12.050000190734863,101.58000183105469,100410.0
1778036280597381412,1565,1778036280596848188,F2008915,-42130.0,-42130.0,-42130.0,0.019979,0.015,1.009993,-0.00473,-0.45292,0.04621,28.200000762939453,12.010000228881836,101.58000183105469,100410.0
1778036280597385259,1566,1778036280596953111,F2008915,-42110.0,-42110.0,-42110.0,0.011535,-0.006933,0.998618,-0.08119,0.60099,0.01269,28.200000762939453,12.100000381469727,101.55000305175781,100412.0
1778036280634726822,1567,1778036280634383917,F2008915,-42340.0,-42340.0,-42340.0,0.025708,-0.015423,0.990933,0.0645,0.42266,-0.06799,28.200000762939453,12.0600004196167,101.55000305175781,100412.0
1778036280634744947,1568,1778036280634478690,F2008915,-42110.0,-42110.0,-42110.0,0.026552,0.017607,1.006571,0.07954,-0.43765,-0.06332,28.200000762939453,12.119999885559082,101.55000305175781,100412.0
1778036280634760674,1569,1778036280634542518,F2008915,-42290.0,-42290.0,-42290.0,0.017545,0.01154,1.005857,-0.19163,0.58338,-0.04543,28.200000762939453,12.050000190734863,101.55000305175781,100412.0
1778036280634842877,1570,1778036280634746006,F2008915,-42340.0,-42340.0,-42340.0,0.037162,-0.027577,0.983688,-0.16378,0.60707,-0.08153,28.200000762939453,12.15999984741211,101.58000183105469,100410.0
1778036280668513880,1571,1778036280668111565,F2008915,-42260.0,-42260.0,-42260.0,0.039834,-0.005475,0.995236,0.03081,-0.40085,-0.06414,28.200000762939453,12.15999984741211,101.58000183105469,100410.0
1778036280668546585,1572,1778036280668240904,F2008915,-42400.0,-42400.0,-42400.0,0.033531,0.003391,1.003538,0.00859,0.02409,0.07473,28.200000762939453,12.100000381469727,101.61000061035156,100410.0
1778036280668573599,1573,1778036280668339571,F2008915,-42270.0,-42270.0,-42270.0,0.029903,-0.02468,0.98909,0.03781,0.50838,0.07463,28.200000762939453,12.020000457763672,101.61000061035156,100410.0
1778036280706062688,1574,1778036280705790012,F2008915,-42520.0,-42520.0,-42520.0,0.043306,-0.00338,0.998466,0.14792,0.0318,0.02706,28.299999237060547,12.069999694824219,101.61000061035156,100410.0
1778036280706076756,1575,1778036280705884678,F2008915,-42490.0,-42490.0,-42490.0,0.022869,0.013389,1.013724,0.06434,-0.06211,0.11406,28.200000762939453,12.029999732971191,101.61000061035156,100410.0
1778036280706195862,1576,1778036280705949343,F2008915,-42360.0,-42360.0,-42360.0,0.021016,-0.013583,0.997298,-0.02629,0.89257,0.13053,28.299999237060547,12.140000343322754,101.58000183105469,100410.0
1778036280706200776,1577,1778036280706012862,F2008915,-42670.0,-42670.0,-42670.0,0.037222,-0.017078,0.991682,0.11908,-0.0388,0.09038,28.200000762939453,12.100000381469727,101.58000183105469,100410.0
1778036280744108410,1578,1778036280743595194,F2008915,-42380.0,-42380.0,-42380.0,0.015409,0.009677,1.004882,0.10305,-0.68251,0.12955,28.200000762939453,12.149999618530273,101.48999786376953,100412.0
1778036280744154778,1579,1778036280743702310,F2008915,-42370.0,-42370.0,-42370.0,0.010713,0.000256,0.9975,0.04943,0.63973,0.1694,28.299999237060547,12.109999656677246,101.48999786376953,100412.0
1778036280744163052,1580,1778036280743758486,F2008915,-42530.0,-42530.0,-42530.0,0.028122,-0.009292,0.99263,0.10828,0.63064,0.15097,28.399999618530273,12.029999732971191,101.45999908447266,100412.0
1778036280744200094,1581,1778036280743856803,F2008915,-42270.0,-42270.0,-42270.0,0.030101,0.01857,1.004549,0.09379,-0.12364,0.15862,28.200000762939453,12.0,101.45999908447266,100412.0
1778036280777693298,1582,1778036280777282964,F2008915,-42390.0,-42390.0,-42390.0,0.01792,0.009692,0.999922,-0.09054,0.24948,0.19103,28.200000762939453,12.119999885559082,101.43000030517578,100412.0
1778036280777710943,1584,1778036280777429905,F2008915,-42350.0,-42350.0,-42350.0,0.039751,0.001194,0.997729,0.15077,-0.5126,0.08009,28.299999237060547,12.039999961853027,101.43000030517578,100412.0
1778036280815501142,1585,1778036280814979118,F2008915,-42440.0,-42440.0,-42440.0,0.014908,0.020249,1.014405,-0.01444,-0.10217,0.18769,28.299999237060547,12.09000015258789,101.43000030517578,100412.0
1778036280815514172,1586,1778036280815073663,F2008915,-42270.0,-42270.0,-42270.0,0.023528,-0.003709,0.999298,-0.10183,0.82127,0.11047,28.200000762939453,12.09000015258789,101.43000030517578,100412.0
1778036280815675290,1587,1778036280815141817,F2008915,-42530.0,-42530.0,-42530.0,0.023647,-0.000267,1.000527,-0.05519,0.0441,0.09603,28.299999237060547,12.09000015258789,101.43000030517578,100412.0
1778036280815681526,1588,1778036280815198104,F2008915,-42450.0,-42450.0,-42450.0,0.018534,0.016181,1.011071,-0.10194,-0.20872,0.19786,28.299999237060547,12.15999984741211,101.4000015258789,100414.0
1778036280853344692,1589,1778036280852797096,F2008915,-42270.0,-42270.0,-42270.0,0.017075,-0.009056,1.000304,-0.162,0.48415,0.20308,28.299999237060547,12.020000457763672,101.4000015258789,100414.0
1778036280853365369,1591,1778036280852944774,F2008915,-42350.0,-42350.0,-42350.0,0.018332,0.008727,1.007042,-0.01952,-0.48536,0.17852,28.200000762939453,12.069999694824219,101.43000030517578,100412.0
1778036280853397002,1592,1778036280853000251,F2008915,-42440.0,-42440.0,-42440.0,0.011669,-5.5e-05,1.002685,-0.13245,0.72465,0.16602,28.200000762939453,12.079999923706055,101.45999908447266,100412.0
1778036280886712556,1593,1778036280886361725,F2008915,-42550.0,-42550.0,-42550.0,0.01749,-0.016219,0.990333,-0.01085,0.50788,0.11095,28.200000762939453,12.069999694824219,101.45999908447266,100412.0
1778036280886725883,1595,1778036280886434579,F2008915,-42620.0,-42620.0,-42620.0,-0.001411,0.004702,1.005808,-0.08066,-0.27214,0.11509,28.200000762939453,12.069999694824219,101.43000030517578,100412.0
1778036280924507851,1596,1778036280924158545,F2008915,-42420.0,-42420.0,-42420.0,0.009927,-0.019063,0.989026,-0.04555,0.51337,0.0912,28.200000762939453,12.140000343322754,101.48999786376953,100412.0
1778036280924529500,1598,1778036280924279136,F2008915,-42610.0,-42610.0,-42610.0,0.011833,0.009192,1.003337,0.04026,0.08619,0.10049,28.200000762939453,12.100000381469727,101.48999786376953,100412.0
1778036280924537619,1599,1778036280924311768,F2008915,-42340.0,-42340.0,-42340.0,0.02336,-0.009963,0.991426,0.0159,0.43223,0.0662,28.299999237060547,12.170000076293945,101.48999786376953,100412.0
1778036280958333949,1600,1778036280957841649,F2008915,-42690.0,-42690.0,-42690.0,0.028907,-0.004612,0.995218,0.11646,-0.65496,-0.00385,28.299999237060547,12.100000381469727,101.43000030517578,100412.0
1778036280958355552,1601,1778036280957901025,F2008915,-42580.0,-42580.0,-42580.0,0.01083,0.020677,1.011351,0.08053,-0.73266,0.11898,28.299999237060547,12.170000076293945,101.43000030517578,100412.0
1778036280958400250,1602,1778036280957965473,F2008915,-42510.0,-42510.0,-42510.0,0.011011,0.002131,1.003097,-0.12948,0.42408,0.04407,28.299999237060547,12.069999694824219,101.4000015258789,100414.0
1778036280996016151,1603,1778036280995632490,F2008915,-42800.0,-42800.0,-42800.0,0.026037,-0.016983,0.989546,-0.01697,0.3208,-0.00793,28.100000381469727,12.050000190734863,101.4000015258789,100414.0
1778036280996122017,1604,1778036280995772003,F2008915,-42640.0,-42640.0,-42640.0,0.027322,0.005752,1.001509,0.007,-0.64272,0.0817,28.200000762939453,12.119999885559082,101.4000015258789,100414.0
1778036280996132104,1605,1778036280995857089,F2008915,-42790.0,-42790.0,-42790.0,0.018324,-0.002762,0.994196,-0.05312,0.17103,0.15111,28.299999237060547,12.079999923706055,101.4000015258789,100414.0
1778036280996334289,1606,1778036280995936656,F2008915,-42800.0,-42800.0,-42800.0,0.032694,-0.031614,0.959062,0.13297,0.53896,0.05304,28.200000762939453,12.079999923706055,101.45999908447266,100412.0
1778036281033888492,1607,1778036281033450701,F2008915,-42650.0,-42650.0,-42650.0,0.04669,-0.012814,0.954621,0.60064,-0.21191,0.05274,28.200000762939453,12.039999961853027,101.45999908447266,100412.0
1778036281033910055,1609,1778036281033603522,F2008915,-42460.0,-42460.0,-42460.0,0.036901,0.025408,0.993655,1.04327,-0.56765,0.1315,28.200000762939453,12.109999656677246,101.43000030517578,100412.0
1778036281033973356,1610,1778036281033655853,F2008915,-42620.0,-42620.0,-42620.0,0.016908,0.073387,1.030545,0.96438,-1.66089,0.13662,28.200000762939453,12.0600004196167,101.43000030517578,100412.0
1778036281067556528,1611,1778036281067058996,F2008915,-42630.0,-42630.0,-42630.0,-0.000583,0.085357,1.062923,0.43185,-0.53323,0.13038,28.299999237060547,12.0600004196167,101.43000030517578,100412.0
1778036281067577966,1613,1778036281067217006,F2008915,-42690.0,-42690.0,-42690.0,0.049402,0.007759,1.026301,-0.04592,0.38409,0.31023,28.299999237060547,12.079999923706055,101.45999908447266,100412.0
1778036281104907152,1614,1778036281104714364,F2008915,-42550.0,-42550.0,-42550.0,0.055452,0.027703,1.03715,-0.2379,-0.93746,0.35216,28.200000762939453,12.069999694824219,101.48999786376953,100412.0
1778036281104968217,1615,1778036281104772602,F2008915,-42560.0,-42560.0,-42560.0,0.050237,0.014177,1.028445,-0.52141,0.06273,0.39053,28.299999237060547,12.020000457763672,101.48999786376953,100412.0
1778036281104989733,1617,1778036281104846933,F2008915,-42490.0,-42490.0,-42490.0,0.035542,0.010653,0.975855,-0.77852,0.42285,0.37871,28.200000762939453,12.100000381469727,101.45999908447266,100412.0
1778036281142999451,1618,1778036281142549878,F2008915,-42600.0,-42600.0,-42600.0,0.019903,-0.013966,0.951198,-0.56061,0.29636,0.43618,28.100000381469727,12.100000381469727,101.4000015258789,100414.0
1778036281143023978,1619,1778036281142695726,F2008915,-42460.0,-42460.0,-42460.0,0.035537,-0.037069,0.932666,-0.06135,-0.81551,0.49927,28.200000762939453,12.029999732971191,101.4000015258789,100414.0
1778036281143083409,1620,1778036281142793946,F2008915,-42490.0,-42490.0,-42490.0,0.025604,-0.00467,0.962587,0.44991,-1.76026,0.53401,28.100000381469727,12.079999923706055,101.4000015258789,100414.0
1778036281143119572,1621,1778036281142891441,F2008915,-42600.0,-42600.0,-42600.0,0.004847,0.036991,0.987619,0.5704,0.74339,0.56487,28.200000762939453,12.100000381469727,101.4000015258789,100414.0
1778036281176602896,1622,1778036281176218633,F2008915,-42340.0,-42340.0,-42340.0,0.026605,0.023846,0.976334,0.58522,2.36753,0.55268,28.200000762939453,12.09000015258789,101.4000015258789,100414.0
1778036281176616956,1623,1778036281176344883,F2008915,-42570.0,-42570.0,-42570.0,0.046347,0.029848,0.985301,0.7244,0.95598,0.45549,28.200000762939453,12.119999885559082,101.4000015258789,100414.0
1778036281176848234,1624,1778036281176434074,F2008915,-42510.0,-42510.0,-42510.0,0.045831,0.039238,1.004761,0.64283,-1.98398,0.51047,28.200000762939453,12.079999923706055,101.45999908447266,100412.0
1778036281214318269,1625,1778036281213978194,F2008915,-42360.0,-42360.0,-42360.0,0.015112,0.005328,1.002354,0.56148,-1.48088,0.46386,28.200000762939453,12.140000343322754,101.45999908447266,100412.0
1778036281214335861,1628,1778036281214112963,F2008915,-42510.0,-42510.0,-42510.0,0.022411,0.066701,1.002598,0.51421,2.21165,0.61697,28.200000762939453,12.010000228881836,101.43000030517578,100412.0
1778036281248103327,1629,1778036281247669315,F2008915,-42540.0,-42540.0,-42540.0,0.0356,0.053733,0.992169,0.43326,-0.7919,0.57824,28.299999237060547,12.109999656677246,101.43000030517578,100412.0
1778036281248119702,1630,1778036281247764401,F2008915,-42390.0,-42390.0,-42390.0,0.03585,0.075036,1.015162,0.40976,-2.34066,0.507,28.299999237060547,11.960000038146973,101.43000030517578,100412.0
1778036281248291872,1631,1778036281247828132,F2008915,-42620.0,-42620.0,-42620.0,0.028798,0.082438,1.02319,0.1742,-0.41965,0.7309,28.299999237060547,12.119999885559082,101.43000030517578,100412.0
1778036281285696813,1632,1778036281285388522,F2008915,-42460.0,-42460.0,-42460.0,0.016335,0.047116,1.004521,0.18681,1.72825,0.80097,28.299999237060547,12.029999732971191,101.44999694824219,100412.0
1778036281285715100,1634,1778036281285489915,F2008915,-42710.0,-42710.0,-42710.0,0.02767,0.069015,1.006588,0.22238,-0.63308,0.86738,28.200000762939453,12.09000015258789,101.4800033569336,100412.0
1778036281285721001,1635,1778036281285528232,F2008915,-42460.0,-42460.0,-42460.0,0.016768,0.033538,0.983527,0.22281,0.04172,0.96926,28.100000381469727,12.109999656677246,101.4800033569336,100412.0
1778036281323550606,1636,1778036281323207273,F2008915,-42740.0,-42740.0,-42740.0,0.025378,0.03552,0.975585,0.51091,-0.10405,0.95984,28.299999237060547,12.079999923706055,101.44999694824219,100412.0
1778036281323858443,1637,1778036281323367053,F2008915,-42650.0,-42650.0,-42650.0,0.034578,0.060303,0.978861,0.60708,0.76529,1.18242,28.299999237060547,12.079999923706055,101.44999694824219,100412.0
1778036281323864187,1638,1778036281323490948,F2008915,-42600.0,-42600.0,-42600.0,0.030361,0.045979,0.963369,0.74222,1.04737,1.33449,28.299999237060547,11.989999771118164,101.55000305175781,100412.0
1778036281324016362,1639,1778036281323811516,F2008915,-42770.0,-42770.0,-42770.0,0.03862,0.04761,0.965083,1.0419,-0.63836,1.28679,28.200000762939453,12.100000381469727,101.55000305175781,100412.0
1778036281357344568,1640,1778036281356816139,F2008915,-42530.0,-42530.0,-42530.0,0.028506,0.089185,1.000102,1.25834,-1.87219,1.38866,28.100000381469727,12.069999694824219,101.5199966430664,100412.0
1778036281357386780,1641,1778036281356909983,F2008915,-42660.0,-42660.0,-42660.0,0.010653,0.100107,1.014906,1.13994,0.5268,1.61684,28.299999237060547,12.050000190734863,101.5199966430664,100412.0
1778036281357433254,1642,1778036281356966340,F2008915,-42660.0,-42660.0,-42660.0,0.020415,0.08667,1.008579,1.09579,1.1935,1.54836,28.200000762939453,12.119999885559082,101.48999786376953,100412.0
1778036281395058724,1643,1778036281394503645,F2008915,-42640.0,-42640.0,-42640.0,0.049029,0.108847,1.019278,1.07846,0.14973,1.50861,28.299999237060547,12.180000305175781,101.48999786376953,100412.0
1778036281395083658,1644,1778036281394598151,F2008915,-42840.0,-42840.0,-42840.0,0.03241,0.103209,1.021767,0.87238,-0.69904,1.79839,28.200000762939453,12.140000343322754,101.45999908447266,100412.0
1778036281395102715,1645,1778036281394660732,F2008915,-42590.0,-42590.0,-42590.0,0.009318,0.063397,0.996644,0.88144,0.17803,1.79575,28.299999237060547,12.130000114440918,101.45999908447266,100412.0
1778036281395106690,1646,1778036281394776014,F2008915,-42750.0,-42750.0,-42750.0,0.028838,0.079741,0.995457,1.11257,0.19006,1.77936,28.299999237060547,12.100000381469727,101.45999908447266,100412.0
1778036281432876525,1647,1778036281432250768,F2008915,-42700.0,-42700.0,-42700.0,0.033056,0.116137,1.004408,1.09909,0.49394,2.01928,28.200000762939453,12.109999656677246,101.45999908447266,100412.0
1778036281432926253,1650,1778036281432419936,F2008915,-42570.0,-42570.0,-42570.0,0.029769,0.146718,1.02137,1.01504,-1.12534,2.28012,28.200000762939453,12.109999656677246,101.45999908447266,100412.0
1778036281466174617,1651,1778036281465874897,F2008915,-42580.0,-42580.0,-42580.0,0.024798,0.136063,1.018045,0.78373,0.88592,2.55898,28.200000762939453,12.119999885559082,101.45999908447266,100412.0
1778036281466178625,1653,1778036281465922427,F2008915,-42580.0,-42580.0,-42580.0,0.062621,0.133375,1.015747,0.70221,-0.23587,2.56256,28.200000762939453,12.029999732971191,101.48999786376953,100412.0
1778036281504489882,1654,1778036281503765257,F2008915,-42900.0,-42900.0,-42900.0,0.038754,0.123617,1.010913,0.47787,0.07661,2.92226,28.200000762939453,12.100000381469727,101.55000305175781,100412.0
1778036281504506386,1657,1778036281504073483,F2008915,-42930.0,-42930.0,-42930.0,0.044147,0.140564,0.996919,0.578,0.48988,3.42582,28.100000381469727,12.119999885559082,101.4800033569336,100412.0
1778036281537972076,1658,1778036281537388291,F2008915,-42650.0,-42650.0,-42650.0,0.016374,0.113236,0.983799,0.48364,0.0469,3.52558,28.200000762939453,12.100000381469727,101.48999786376953,100412.0
1778036281537982854,1659,1778036281537483253,F2008915,-42850.0,-42850.0,-42850.0,0.032468,0.120496,0.995495,0.58439,-0.66955,3.5599,28.299999237060547,12.069999694824219,101.48999786376953,100412.0
1778036281537989078,1660,1778036281537563694,F2008915,-42800.0,-42800.0,-42800.0,0.03629,0.145431,1.015935,0.48905,-0.03563,3.92872,28.399999618530273,12.109999656677246,101.45999908447266,100412.0
1778036281575488858,1661,1778036281575129567,F2008915,-42590.0,-42590.0,-42590.0,0.021234,0.117893,0.999758,0.44674,1.61913,4.22211,28.200000762939453,12.069999694824219,101.45999908447266,100412.0
1778036281575819727,1662,1778036281575205453,F2008915,-42680.0,-42680.0,-42680.0,0.043782,0.11656,0.998942,0.52295,0.75819,4.03407,28.299999237060547,12.0600004196167,101.43000030517578,100412.0
1778036281575858120,1663,1778036281575263161,F2008915,-42410.0,-42410.0,-42410.0,0.06207,0.153816,1.021937,0.33724,-0.90997,4.21722,28.100000381469727,12.029999732971191,101.43000030517578,100412.0
1778036281576262709,1664,1778036281575315427,F2008915,-42510.0,-42510.0,-42510.0,0.028453,0.128113,1.008339,0.07551,0.18917,4.49391,28.200000762939453,12.0600004196167,101.37000274658203,100414.0
1778036281613065233,1665,1778036281612857132,F2008915,-42570.0,-42570.0,-42570.0,0.014255,0.095868,0.992853,0.18756,0.96536,4.34738,28.200000762939453,12.109999656677246,101.37000274658203,100414.0
1778036281613071355,1666,1778036281612904276,F2008915,-42500.0,-42500.0,-42500.0,0.052648,0.124895,1.006265,0.25334,0.73789,4.54615,28.299999237060547,12.020000457763672,101.37000274658203,100414.0
1778036281613073935,1668,1778036281612966019,F2008915,-42550.0,-42550.0,-42550.0,0.006525,0.099259,0.99411,0.12864,0.31793,5.18587,28.299999237060547,12.130000114440918,101.33999633789062,100414.0
1778036281646888935,1669,1778036281646564806,F2008915,-42610.0,-42610.0,-42610.0,0.025874,0.127125,1.012988,0.218,-0.90505,5.11221,28.299999237060547,12.109999656677246,101.33999633789062,100414.0
1778036281646916124,1670,1778036281646647415,F2008915,-42620.0,-42620.0,-42620.0,0.049849,0.140339,1.029515,-0.14941,0.50142,5.44543,28.100000381469727,12.0600004196167,101.4000015258789,100414.0
1778036281646926647,1671,1778036281646701071,F2008915,-42340.0,-42340.0,-42340.0,0.053387,0.110792,1.014492,-0.33903,1.86222,5.71873,28.299999237060547,12.109999656677246,101.4000015258789,100414.0
1778036281684887980,1672,1778036281684359777,F2008915,-42550.0,-42550.0,-42550.0,0.067914,0.107227,1.018366,-0.43482,0.54462,5.71533,28.200000762939453,12.119999885559082,101.4000015258789,100414.0
1778036281684902893,1673,1778036281684422985,F2008915,-42400.0,-42400.0,-42400.0,0.047683,0.130872,1.038456,-0.60742,-0.27644,5.90959,28.200000762939453,12.050000190734863,101.4000015258789,100414.0
1778036281684961560,1674,1778036281684512919,F2008915,-42410.0,-42410.0,-42410.0,-0.000333,0.099531,1.027235,-1.0153,0.25104,6.16518,28.200000762939453,12.0,101.4000015258789,100414.0
1778036281684969571,1675,1778036281684560004,F2008915,-42590.0,-42590.0,-42590.0,-0.006294,0.075997,1.021675,-1.17108,0.13776,6.1555,28.200000762939453,11.989999771118164,101.4000015258789,100414.0
1778036281718260236,1676,1778036281718033741,F2008915,-42390.0,-42390.0,-42390.0,0.021532,0.09022,1.023762,-1.40314,-0.20836,6.43155,28.299999237060547,12.0600004196167,101.33999633789062,100414.0
1778036281718270582,1677,1778036281718093335,F2008915,-42600.0,-42600.0,-42600.0,-0.000415,0.057591,1.002689,-1.72222,1.22846,6.8022,28.299999237060547,12.09000015258789,101.33999633789062,100414.0
1778036281718281344,1678,1778036281718140098,F2008915,-42560.0,-42560.0,-42560.0,0.007012,0.017431,0.96924,-1.63053,1.52055,6.67476,28.299999237060547,12.029999732971191,101.37000274658203,100414.0
1778036281756118613,1679,1778036281755835174,F2008915,-42440.0,-42440.0,-42440.0,0.033532,0.035939,0.977674,-1.53326,0.01842,6.54739,28.200000762939453,12.15999984741211,101.37000274658203,100414.0
1778036281756177861,1680,1778036281755928106,F2008915,-42610.0,-42610.0,-42610.0,0.027081,0.038192,0.984742,-1.56433,0.4978,6.85695,28.399999618530273,12.079999923706055,101.4000015258789,100414.0
1778036281756184224,1681,1778036281755985473,F2008915,-42310.0,-42310.0,-42310.0,-0.009279,-0.010986,0.963701,-1.52649,-0.55427,6.81688,28.200000762939453,12.109999656677246,101.4000015258789,100414.0
1778036281756399109,1682,1778036281756038282,F2008915,-42410.0,-42410.0,-42410.0,-0.014353,-0.011383,0.975199,-1.18186,-1.28,6.52444,28.200000762939453,12.0600004196167,101.4000015258789,100414.0
1778036281793907460,1683,1778036281793599856,F2008915,-42480.0,-42480.0,-42480.0,-0.025293,0.025416,1.001287,-1.01692,-0.7156,6.62838,28.399999618530273,12.180000305175781,101.4000015258789,100414.0
1778036281793920073,1684,1778036281793698386,F2008915,-42390.0,-42390.0,-42390.0,-0.026464,0.0015,0.988903,-1.08043,1.38169,6.66853,28.200000762939453,12.109999656677246,101.33999633789062,100414.0
1778036281793946537,1685,1778036281793755057,F2008915,-42680.0,-42680.0,-42680.0,-0.001641,-0.019782,0.978863,-0.95086,1.03849,6.45211,28.200000762939453,12.100000381469727,101.33999633789062,100414.0
1778036281794360386,1686,1778036281793814205,F2008915,-42520.0,-42520.0,-42520.0,0.01516,-0.007439,0.992095,-0.94371,-0.08627,6.56026,28.100000381469727,12.170000076293945,101.37000274658203,100414.0
1778036281827721864,1687,1778036281827320363,F2008915,-42530.0,-42530.0,-42530.0,0.015527,-0.039207,0.972849,-0.97945,0.24879,6.66137,28.299999237060547,12.130000114440918,101.37000274658203,100414.0
1778036281827730789,1688,1778036281827427984,F2008915,-42660.0,-42660.0,-42660.0,0.005398,-0.060127,0.963221,-0.71225,-0.92538,6.44263,28.200000762939453,12.079999923706055,101.43000030517578,100412.0
1778036281827736061,1689,1778036281827506916,F2008915,-42460.0,-42460.0,-42460.0,0.02215,-0.017938,0.986781,-0.50246,-1.51478,6.31822,28.200000762939453,12.069999694824219,101.43000030517578,100412.0
1778036281865241306,1690,1778036281864944469,F2008915,-42710.0,-42710.0,-42710.0,0.010715,0.000327,1.010684,-0.64665,0.03197,6.43455,28.299999237060547,12.079999923706055,101.45999908447266,100412.0
1778036281865254487,1691,1778036281865038295,F2008915,-42570.0,-42570.0,-42570.0,-0.004878,-0.012955,1.011002,-0.60267,1.12119,6.39969,28.299999237060547,12.119999885559082,101.45999908447266,100412.0
1778036281865262270,1692,1778036281865102008,F2008915,-42500.0,-42500.0,-42500.0,0.018629,-0.001729,1.015289,-0.60247,0.12784,6.40115,28.299999237060547,12.0600004196167,101.48999786376953,100412.0
1778036281866004262,1693,1778036281865160644,F2008915,-42650.0,-42650.0,-42650.0,0.012552,0.004353,1.016412,-0.70485,0.17696,6.39185,28.100000381469727,12.109999656677246,101.48999786376953,100412.0
1778036281903705840,1694,1778036281902800828,F2008915,-42460.0,-42460.0,-42460.0,0.035799,-0.030739,0.984851,-0.6842,-0.09163,6.31804,28.299999237060547,12.100000381469727,101.48999786376953,100412.0
1778036281903739157,1695,1778036281902935955,F2008915,-42630.0,-42630.0,-42630.0,0.037635,-0.027083,0.98863,-0.57358,-0.9174,6.19588,28.299999237060547,12.119999885559082,101.48999786376953,100412.0
1778036281903748915,1696,1778036281903022978,F2008915,-42570.0,-42570.0,-42570.0,0.025142,-0.008134,0.999871,-0.5729,0.06465,6.33592,28.299999237060547,12.050000190734863,101.45999908447266,100412.0
1778036281903817556,1697,1778036281903263193,F2008915,-42450.0,-42450.0,-42450.0,0.006519,-0.039928,0.985196,-0.56889,1.7272,6.40994,28.399999618530273,12.15999984741211,101.45999908447266,100412.0
1778036281936911822,1698,1778036281936535714,F2008915,-42670.0,-42670.0,-42670.0,0.024803,-0.04888,0.982078,-0.30343,0.66355,6.32504,28.200000762939453,12.020000457763672,101.43000030517578,100412.0
1778036281936929613,1699,1778036281936645745,F2008915,-42440.0,-42440.0,-42440.0,0.028329,-0.014146,0.997287,-0.18818,-1.15905,6.42911,28.200000762939453,12.119999885559082,101.43000030517578,100412.0
1778036281936938372,1700,1778036281936703360,F2008915,-42590.0,-42590.0,-42590.0,0.016866,-0.026537,0.995677,-0.13834,-0.69365,6.46948,28.299999237060547,12.170000076293945,101.4000015258789,100414.0
1778036281974608087,1701,1778036281974276598,F2008915,-42630.0,-42630.0,-42630.0,0.024517,-0.039266,0.987159,0.07545,-0.21046,6.39117,28.200000762939453,12.0600004196167,101.4000015258789,100414.0
1778036281974622277,1702,1778036281974381313,F2008915,-42370.0,-42370.0,-42370.0,0.032655,-0.002552,1.007663,0.1891,0.14094,6.40429,28.299999237060547,12.029999732971191,101.43000030517578,100412.0
1778036281974634020,1703,1778036281974440562,F2008915,-42510.0,-42510.0,-42510.0,0.025767,0.002744,1.003568,0.0261,0.98288,6.53447,28.200000762939453,12.069999694824219,101.43000030517578,100412.0
1778036281975022230,1704,1778036281974548234,F2008915,-42290.0,-42290.0,-42290.0,0.039495,-0.034807,0.981665,0.07104,0.57118,6.34725,28.200000762939453,12.069999694824219,101.43000030517578,100412.0
1778036282008066736,1705,1778036282007800562,F2008915,-42310.0,-42310.0,-42310.0,0.044689,-0.020178,0.9954,0.21569,-1.19182,6.28553,28.200000762939453,12.140000343322754,101.43000030517578,100412.0
1778036282008080153,1707,1778036282007892941,F2008915,-42160.0,-42160.0,-42160.0,0.019336,-0.025362,1.016362,-0.29678,0.606,6.77969,28.299999237060547,12.109999656677246,101.45999908447266,100412.0
1778036282046009506,1708,1778036282045659593,F2008915,-42350.0,-42350.0,-42350.0,0.034862,-0.046211,0.997102,-0.47271,0.74371,6.48344,28.200000762939453,12.029999732971191,101.43000030517578,100412.0
1778036282046024581,1709,1778036282045760525,F2008915,-42190.0,-42190.0,-42190.0,0.054819,-0.046352,0.983018,-0.57219,0.55492,6.6496,28.399999618530273,12.039999961853027,101.43000030517578,100412.0
1778036282046030304,1710,1778036282045838817,F2008915,-42130.0,-42130.0,-42130.0,0.040254,-0.094635,0.942615,-0.30831,1.50374,6.88463,28.299999237060547,12.130000114440918,101.43000030517578,100412.0
1778036282046487320,1711,1778036282045938709,F2008915,-42330.0,-42330.0,-42330.0,0.051776,-0.084761,0.936883,0.24454,0.28407,6.67105,28.299999237060547,12.130000114440918,101.43000030517578,100412.0
1778036282083771660,1712,1778036282083315394,F2008915,-42090.0,-42090.0,-42090.0,0.036843,-0.004784,0.970245,0.5204,-1.18657,6.5209,28.200000762939453,12.09000015258789,101.45999908447266,100412.0
1778036282084050436,1713,1778036282083436854,F2008915,-42230.0,-42230.0,-42230.0,0.017553,0.009868,0.980173,0.36831,0.26697,6.56623,28.200000762939453,12.010000228881836,101.45999908447266,100412.0
1778036282084068214,1714,1778036282083589248,F2008915,-42200.0,-42200.0,-42200.0,0.006204,-0.014354,0.966398,0.44147,0.7641,6.48768,28.399999618530273,12.0600004196167,101.45999908447266,100412.0
1778036282084555393,1715,1778036282083681127,F2008915,-42020.0,-42020.0,-42020.0,0.018881,0.00016,0.979797,0.61621,1.10384,6.46995,28.299999237060547,12.020000457763672,101.45999908447266,100412.0
1778036282117617829,1716,1778036282117173009,F2008915,-42220.0,-42220.0,-42220.0,0.001138,-0.015002,0.985998,0.66521,0.8796,6.64031,28.299999237060547,12.050000190734863,101.45999908447266,100412.0
1778036282117705251,1717,1778036282117308104,F2008915,-42060.0,-42060.0,-42060.0,0.017689,-0.049941,0.977482,0.83767,0.88564,6.41935,28.200000762939453,12.050000190734863,101.45999908447266,100412.0
1778036282117720887,1718,1778036282117451689,F2008915,-42190.0,-42190.0,-42190.0,0.021536,-0.012246,1.012001,1.02653,-0.58956,6.1116,28.200000762939453,12.0600004196167,101.48999786376953,100412.0
1778036282155207433,1719,1778036282154839759,F2008915,-42220.0,-42220.0,-42220.0,0.024754,0.036475,1.045879,0.69515,0.91189,6.17039,28.200000762939453,12.109999656677246,101.48999786376953,100412.0
1778036282155224636,1720,1778036282154956442,F2008915,-42050.0,-42050.0,-42050.0,0.009395,-0.004622,1.016021,0.32692,2.94373,6.11455,28.200000762939453,12.140000343322754,101.4000015258789,100414.0
1778036282155601624,1721,1778036282155053089,F2008915,-42240.0,-42240.0,-42240.0,0.018726,-0.027684,0.994175,0.29257,2.10327,5.74155,28.200000762939453,12.09000015258789,101.4000015258789,100414.0
1778036282155631877,1722,1778036282155184168,F2008915,-42040.0,-42040.0,-42040.0,0.032733,0.002358,1.013173,0.32263,-0.05986,5.82149,28.200000762939453,12.020000457763672,101.4000015258789,100414.0
1778036282192770765,1723,1778036282192444210,F2008915,-42070.0,-42070.0,-42070.0,-0.003484,-0.005373,1.017621,0.26785,-0.29187,5.94892,28.299999237060547,12.079999923706055,101.4000015258789,100414.0
1778036282192776128,1725,1778036282192487095,F2008915,-41990.0,-41990.0,-41990.0,0.006808,0.038807,1.03947,-0.03606,1.57981,5.58353,28.200000762939453,12.0600004196167,101.33999633789062,100414.0
1778036282192778501,1726,1778036282192505834,F2008915,-42240.0,-42240.0,-42240.0,0.005219,0.010603,1.018664,-0.37008,3.71022,5.85539,28.200000762939453,12.050000190734863,101.33999633789062,100414.0
1778036282226673642,1727,1778036282226253398,F2008915,-42130.0,-42130.0,-42130.0,0.01693,-0.039737,0.98768,-0.26271,2.58888,5.79689,28.200000762939453,12.09000015258789,101.33999633789062,100414.0
1778036282226697905,1728,1778036282226397430,F2008915,-42090.0,-42090.0,-42090.0,0.035635,-0.030562,0.995304,-0.04809,-0.97898,5.6452,28.200000762939453,12.069999694824219,101.4000015258789,100414.0
1778036282226800169,1729,1778036282226521991,F2008915,-42230.0,-42230.0,-42230.0,0.019066,-0.005135,1.016479,0.00094,-0.41019,5.76241,28.299999237060547,12.079999923706055,101.4000015258789,100414.0
1778036282264267523,1730,1778036282263969132,F2008915,-41980.0,-41980.0,-41980.0,-0.011118,-0.021688,1.010347,-0.05674,1.06616,5.90129,28.200000762939453,12.029999732971191,101.33999633789062,100414.0
1778036282264290316,1731,1778036282264092393,F2008915,-42170.0,-42170.0,-42170.0,0.001927,-0.011453,1.007513,0.00869,2.18517,5.81968,28.100000381469727,12.09000015258789,101.33999633789062,100414.0
1778036282264517103,1732,1778036282264193119,F2008915,-42110.0,-42110.0,-42110.0,0.005125,0.006637,1.021622,-0.14675,0.97521,5.98037,28.299999237060547,12.100000381469727,101.4000015258789,100414.0
1778036282264533386,1733,1778036282264316797,F2008915,-41960.0,-41960.0,-41960.0,-0.012298,-0.018459,1.00591,-0.16645,0.60416,6.13893,28.200000762939453,12.079999923706055,101.4000015258789,100414.0
1778036282298017999,1734,1778036282297662836,F2008915,-42270.0,-42270.0,-42270.0,-0.004754,-0.017126,1.008157,-0.05495,-0.96741,6.03644,28.299999237060547,12.079999923706055,101.4000015258789,100414.0
1778036282298570700,1735,1778036282297772374,F2008915,-42050.0,-42050.0,-42050.0,-0.010707,0.011676,1.022631,-0.10111,-0.23122,6.07903,28.299999237060547,12.039999961853027,101.4000015258789,100414.0
1778036282298583827,1736,1778036282297896452,F2008915,-42200.0,-42200.0,-42200.0,-0.000542,0.000836,1.010483,-0.23619,1.6336,6.13892,28.299999237060547,12.0600004196167,101.4000015258789,100414.0
1778036282336027834,1737,1778036282335406186,F2008915,-42280.0,-42280.0,-42280.0,0.002242,-0.018503,0.996232,-0.20591,1.08262,5.99898,28.299999237060547,11.979999542236328,101.4000015258789,100414.0
1778036282336064159,1738,1778036282335533160,F2008915,-42080.0,-42080.0,-42080.0,0.003885,-0.002332,1.005043,-0.20277,-0.96895,5.99499,28.299999237060547,12.140000343322754,101.43000030517578,100412.0
1778036282336077982,1739,1778036282335735425,F2008915,-42320.0,-42320.0,-42320.0,-0.034886,-0.010168,1.001946,-0.33816,-0.68321,6.11285,28.200000762939453,12.109999656677246,101.43000030517578,100412.0
1778036282336103722,1740,1778036282335827360,F2008915,-42240.0,-42240.0,-42240.0,-0.032888,-0.033963,0.982081,-0.20066,0.27653,5.93913,28.299999237060547,12.029999732971191,101.45999908447266,100412.0
1778036282373614222,1741,1778036282373181753,F2008915,-42230.0,-42230.0,-42230.0,-0.003256,-0.013629,0.991831,-0.08745,-0.49418,5.78799,28.200000762939453,12.029999732971191,101.45999908447266,100412.0
1778036282373637169,1742,1778036282373330363,F2008915,-42300.0,-42300.0,-42300.0,-0.010312,-0.001524,0.993964,-0.18464,0.00302,5.88898,28.200000762939453,12.109999656677246,101.43000030517578,100412.0
1778036282373651495,1743,1778036282373423463,F2008915,-42010.0,-42010.0,-42010.0,-0.014398,-0.040917,0.963754,-0.11829,0.2407,5.81648,28.200000762939453,12.149999618530273,101.43000030517578,100412.0
1778036282374306856,1744,1778036282373555755,F2008915,-42200.0,-42200.0,-42200.0,0.001107,-0.041898,0.959251,0.32316,-0.12731,5.59277,28.200000762939453,12.079999923706055,101.4000015258789,100414.0
1778036282407269742,1745,1778036282406847232,F2008915,-42060.0,-42060.0,-42060.0,0.016975,0.016646,0.993168,0.55052,-0.72795,5.62848,28.299999237060547,12.029999732971191,101.4000015258789,100414.0
1778036282407313254,1746,1778036282406986435,F2008915,-41970.0,-41970.0,-41970.0,-0.000408,0.031359,1.00442,0.4626,-0.49025,5.6553,28.200000762939453,12.079999923706055,101.43000030517578,100412.0
1778036282407896158,1747,1778036282407070943,F2008915,-42170.0,-42170.0,-42170.0,-0.019258,0.030571,1.015295,0.29707,-1.50227,5.42042,28.200000762939453,12.09000015258789,101.43000030517578,100412.0
1778036282444819696,1748,1778036282444596895,F2008915,-41920.0,-41920.0,-41920.0,-0.011399,0.054211,1.040244,-0.01283,-1.20697,5.35139,28.299999237060547,12.0600004196167,101.45999908447266,100412.0
1778036282444841106,1749,1778036282444701607,F2008915,-42010.0,-42010.0,-42010.0,-0.009379,0.014175,1.022024,-0.37936,0.76483,5.5397,28.200000762939453,12.029999732971191,101.45999908447266,100412.0
1778036282445009191,1750,1778036282444759252,F2008915,-42050.0,-42050.0,-42050.0,0.026005,-0.044741,0.987639,-0.20708,1.85983,5.46726,28.299999237060547,12.079999923706055,101.43000030517578,100412.0
1778036282445326463,1751,1778036282444815991,F2008915,-41900.0,-41900.0,-41900.0,0.056579,-0.012663,1.009202,-0.01455,-0.52228,5.45097,28.200000762939453,12.100000381469727,101.43000030517578,100412.0
1778036282482634854,1752,1778036282482419238,F2008915,-42090.0,-42090.0,-42090.0,0.048482,0.02176,1.027641,-0.24571,-0.73224,5.67737,28.200000762939453,12.050000190734863,101.45999908447266,100412.0
1778036282482657984,1753,1778036282482488850,F2008915,-41910.0,-41910.0,-41910.0,0.007691,-0.006701,1.008936,-0.43624,-0.16627,5.72041,28.299999237060547,12.079999923706055,101.45999908447266,100412.0
1778036282482939069,1754,1778036282482543798,F2008915,-42080.0,-42080.0,-42080.0,0.027532,0.002607,1.004424,-0.48918,-0.39108,5.66916,28.299999237060547,12.050000190734863,101.45999908447266,100412.0
1778036282483135700,1755,1778036282482599092,F2008915,-42140.0,-42140.0,-42140.0,0.045395,0.004475,0.999519,-0.58365,-0.2054,5.89393,28.200000762939453,12.109999656677246,101.45999908447266,100412.0
1778036282516631278,1756,1778036282516044208,F2008915,-41950.0,-41950.0,-41950.0,0.022981,-0.026624,0.978701,-0.38081,0.31798,5.96003,28.200000762939453,12.0600004196167,101.4000015258789,100414.0
1778036282516668002,1758,1778036282516280212,F2008915,-41960.0,-41960.0,-41960.0,0.007973,0.026898,1.003929,0.1196,-0.38683,6.05432,28.299999237060547,12.09000015258789,101.37000274658203,100414.0
1778036282554289311,1759,1778036282553807305,F2008915,-41950.0,-41950.0,-41950.0,0.021761,0.018459,0.993104,0.0096,1.1097,6.11604,28.399999618530273,12.140000343322754,101.37000274658203,100414.0
1778036282554301590,1760,1778036282553864090,F2008915,-42150.0,-42150.0,-42150.0,0.017364,0.002797,0.981167,0.03698,-0.39991,6.04666,28.299999237060547,12.0600004196167,101.37000274658203,100414.0
1778036282554325896,1761,1778036282553893964,F2008915,-41910.0,-41910.0,-41910.0,0.031306,0.017289,0.991366,0.06514,-1.80462,6.08379,28.299999237060547,12.069999694824219,101.37000274658203,100414.0
1778036282554337401,1762,1778036282553970337,F2008915,-42050.0,-42050.0,-42050.0,0.003604,-0.003236,0.987838,-0.03259,-0.69946,6.16032,28.200000762939453,12.050000190734863,101.37000274658203,100414.0
1778036282588242977,1763,1778036282587583432,F2008915,-41950.0,-41950.0,-41950.0,0.012638,-0.023472,0.983684,0.0979,0.90315,6.02733,28.299999237060547,11.989999771118164,101.37000274658203,100414.0
1778036282588264975,1764,1778036282587671480,F2008915,-41890.0,-41890.0,-41890.0,0.031504,0.003249,0.99778,0.09415,-0.06325,6.039,28.299999237060547,12.050000190734863,101.4000015258789,100414.0
1778036282588275446,1765,1778036282587937938,F2008915,-42030.0,-42030.0,-42030.0,0.032668,0.030965,1.010216,0.01154,-0.05065,6.22596,28.299999237060547,12.069999694824219,101.4000015258789,100414.0
1778036282625711086,1766,1778036282625262368,F2008915,-41800.0,-41800.0,-41800.0,0.02443,0.008116,0.992488,-0.0248,-0.98607,6.2321,28.200000762939453,12.119999885559082,101.33999633789062,100414.0
1778036282625732261,1767,1778036282625351488,F2008915,-41990.0,-41990.0,-41990.0,0.022477,0.012268,0.992721,0.00331,-1.28261,6.0013,28.200000762939453,12.15999984741211,101.33999633789062,100414.0
1778036282625737610,1768,1778036282625407444,F2008915,-42050.0,-42050.0,-42050.0,0.036939,0.031036,1.004075,-0.11421,-0.34752,6.12245,28.299999237060547,12.1899995803833,101.33999633789062,100414.0
1778036282625741902,1769,1778036282625542754,F2008915,-42000.0,-42000.0,-42000.0,0.017149,0.006814,0.992697,-0.09646,1.35519,6.23242,28.299999237060547,12.0600004196167,101.33999633789062,100414.0
1778036282663528609,1770,1778036282663015593,F2008915,-42320.0,-42320.0,-42320.0,0.019591,0.000246,0.98623,0.0076,0.48241,6.07174,28.200000762939453,12.010000228881836,101.37000274658203,100414.0
1778036282663549786,1771,1778036282663109396,F2008915,-42080.0,-42080.0,-42080.0,0.01376,0.02913,1.006553,0.03617,-0.9357,6.05015,28.299999237060547,12.149999618530273,101.37000274658203,100414.0
1778036282663558106,1772,1778036282663167633,F2008915,-42000.0,-42000.0,-42000.0,0.010267,0.013308,0.992723,-0.04823,0.36906,6.19679,28.200000762939453,12.0600004196167,101.30999755859375,100414.0
1778036282663568120,1773,1778036282663222068,F2008915,-42130.0,-42130.0,-42130.0,-0.002819,-0.005981,0.981479,-0.05305,0.37415,6.01488,28.200000762939453,12.020000457763672,101.30999755859375,100414.0
1778036282697086836,1774,1778036282696671249,F2008915,-41980.0,-41980.0,-41980.0,0.012111,0.009561,0.989549,0.07448,0.04081,6.00859,28.200000762939453,12.100000381469727,101.30999755859375,100414.0
1778036282697159982,1775,1778036282696758944,F2008915,-42170.0,-42170.0,-42170.0,-0.002947,2.9e-05,0.980079,0.08696,0.57137,6.16362,28.200000762939453,12.039999961853027,101.30999755859375,100414.0
1778036282697189114,1776,1778036282696815697,F2008915,-42080.0,-42080.0,-42080.0,-0.012663,-0.018943,0.962521,0.34585,0.80515,5.98403,28.299999237060547,12.0600004196167,101.3499984741211,100414.0
1778036282734933793,1777,1778036282734432404,F2008915,-42120.0,-42120.0,-42120.0,0.018755,0.015606,0.974281,0.57578,-0.44226,5.77533,28.200000762939453,12.069999694824219,101.3499984741211,100414.0
1778036282734960475,1778,1778036282734534952,F2008915,-42240.0,-42240.0,-42240.0,0.015082,0.054676,1.000503,0.51666,0.19381,5.8727,28.299999237060547,12.100000381469727,101.41000366210938,100412.0
1778036282734970279,1779,1778036282734593717,F2008915,-42000.0,-42000.0,-42000.0,0.012661,0.029782,0.985363,0.48547,1.02375,5.85596,28.200000762939453,12.010000228881836,101.41000366210938,100412.0
1778036282734978695,1780,1778036282734646594,F2008915,-42210.0,-42210.0,-42210.0,0.004931,0.033516,0.997701,0.57691,0.18441,5.69678,28.200000762939453,12.119999885559082,101.47000122070312,100412.0
1778036282768699993,1781,1778036282768122136,F2008915,-42010.0,-42010.0,-42010.0,0.024486,0.059824,1.019291,0.51396,-0.05152,5.89228,28.100000381469727,12.100000381469727,101.47000122070312,100412.0
1778036282768735069,1782,1778036282768215922,F2008915,-41860.0,-41860.0,-41860.0,0.003865,0.033467,1.010041,0.38421,0.76719,6.18611,28.299999237060547,12.09000015258789,101.52999877929688,100412.0
1778036282768754108,1783,1778036282768271761,F2008915,-42100.0,-42100.0,-42100.0,0.015847,0.016237,1.003775,0.54206,0.29957,6.08715,28.200000762939453,12.010000228881836,101.52999877929688,100412.0
1778036282806624341,1784,1778036282805838203,F2008915,-41880.0,-41880.0,-41880.0,0.044744,0.048595,1.023619,0.4932,-0.29689,6.15583,28.200000762939453,12.109999656677246,101.62999725341797,100410.0
1778036282806659286,1785,1778036282805930648,F2008915,-41960.0,-41960.0,-41960.0,0.03668,0.046315,1.017845,0.28763,1.31126,6.39541,28.100000381469727,11.970000267028809,101.62999725341797,100410.0
1778036282806676297,1786,1778036282806070202,F2008915,-42000.0,-42000.0,-42000.0,0.028932,0.017412,0.998206,0.25722,1.04657,6.37877,28.200000762939453,12.050000190734863,101.5999984741211,100410.0
1778036282806703255,1787,1778036282806191439,F2008915,-41780.0,-41780.0,-41780.0,0.042694,0.054463,1.013958,0.30265,-0.41803,6.48584,28.200000762939453,12.020000457763672,101.5999984741211,100410.0
1778036282843980734,1788,1778036282843636251,F2008915,-41910.0,-41910.0,-41910.0,0.01965,0.064719,1.019463,0.16954,-0.44852,6.91153,28.200000762939453,12.0,101.62999725341797,100410.0
1778036282843989308,1789,1778036282843699636,F2008915,-41680.0,-41680.0,-41680.0,-0.007428,0.033852,0.998458,0.15952,-0.00966,6.87211,28.200000762939453,12.100000381469727,101.62999725341797,100410.0
1778036282843992280,1790,1778036282843732258,F2008915,-41770.0,-41770.0,-41770.0,0.030255,0.051781,1.007773,0.3086,-0.23498,6.62879,28.200000762939453,12.0,101.62999725341797,100410.0
1778036282844376538,1791,1778036282843798273,F2008915,-41850.0,-41850.0,-41850.0,0.039432,0.071958,1.023337,0.1643,0.88102,7.00349,28.200000762939453,12.100000381469727,101.62999725341797,100410.0
1778036282878027824,1792,1778036282877393181,F2008915,-41600.0,-41600.0,-41600.0,0.016829,0.038177,0.992733,0.01933,2.0765,7.2171,28.200000762939453,12.119999885559082,101.68000030517578,100410.0
1778036282878037934,1793,1778036282877486638,F2008915,-41920.0,-41920.0,-41920.0,0.01657,0.025141,0.98145,0.16352,0.34255,7.034,28.200000762939453,12.09000015258789,101.68000030517578,100410.0
1778036282878045439,1794,1778036282877627888,F2008915,-41790.0,-41790.0,-41790.0,0.037436,0.05084,0.994801,0.23532,-0.91576,7.22,28.299999237060547,12.050000190734863,101.75,100408.0
1778036282915308511,1795,1778036282914994636,F2008915,-41700.0,-41700.0,-41700.0,0.00466,0.02943,0.986196,0.16889,-0.64544,7.50441,28.200000762939453,12.100000381469727,101.75,100408.0
1778036282915317602,1797,1778036282915084199,F2008915,-41710.0,-41710.0,-41710.0,0.020328,0.03858,0.985665,0.46005,0.13609,7.30823,28.200000762939453,12.100000381469727,101.69000244140625,100410.0
1778036282915323171,1798,1778036282915116141,F2008915,-41820.0,-41820.0,-41820.0,0.028179,0.050396,0.98826,0.46512,2.06656,7.58518,28.299999237060547,12.100000381469727,101.69000244140625,100410.0
1778036282953306448,1799,1778036282952768238,F2008915,-41770.0,-41770.0,-41770.0,0.03142,0.037995,0.982066,0.58769,1.19553,7.52121,28.299999237060547,12.109999656677246,101.69000244140625,100410.0
1778036282953315565,1800,1778036282952861874,F2008915,-41690.0,-41690.0,-41690.0,0.028324,0.073106,1.009896,0.57342,-1.50485,7.42866,28.200000762939453,12.050000190734863,101.69000244140625,100410.0
1778036282953321262,1801,1778036282952923290,F2008915,-41820.0,-41820.0,-41820.0,0.01265,0.073139,1.013182,0.30881,-0.86911,7.65581,28.299999237060547,12.109999656677246,101.69000244140625,100410.0
1778036282953414750,1802,1778036282952980384,F2008915,-41580.0,-41580.0,-41580.0,-0.007121,0.035247,0.992868,0.2578,0.51658,7.63516,28.200000762939453,12.079999923706055,101.66000366210938,100410.0
1778036282986972671,1803,1778036282986526731,F2008915,-41710.0,-41710.0,-41710.0,0.02223,0.052534,1.004034,0.40874,1.14668,7.55861,28.200000762939453,12.0600004196167,101.66000366210938,100410.0
1778036282986980221,1804,1778036282986621429,F2008915,-41650.0,-41650.0,-41650.0,0.024762,0.067759,1.01339,0.27456,1.14845,7.78575,28.200000762939453,12.069999694824219,101.72000122070312,100410.0
1778036282986985022,1805,1778036282986674947,F2008915,-41470.0,-41470.0,-41470.0,0.000126,0.036743,0.994224,0.23677,1.83019,7.82197,28.200000762939453,12.0600004196167,101.72000122070312,100410.0
1778036283024545244,1806,1778036283024227158,F2008915,-41790.0,-41790.0,-41790.0,0.024173,0.042888,1.000816,0.28366,0.27407,7.62533,28.299999237060547,11.949999809265137,101.70999908447266,100410.0
1778036283024555075,1808,1778036283024299265,F2008915,-41590.0,-41590.0,-41590.0,0.003473,0.043009,0.998555,0.04279,0.78161,8.01824,28.399999618530273,12.010000228881836,101.62000274658203,100410.0
1778036283024751167,1809,1778036283024322886,F2008915,-41680.0,-41680.0,-41680.0,-0.001104,0.037577,0.991898,0.16683,0.72173,7.77655,28.299999237060547,12.029999732971191,101.62000274658203,100410.0
1778036283058642401,1810,1778036283058007248,F2008915,-41440.0,-41440.0,-41440.0,0.027923,0.07548,1.012209,0.17051,0.36429,7.85334,28.299999237060547,12.079999923706055,101.70999908447266,100410.0
1778036283058675715,1811,1778036283058102238,F2008915,-41530.0,-41530.0,-41530.0,-0.004335,0.068715,1.006905,0.05091,2.05025,8.18663,28.200000762939453,12.0600004196167,101.70999908447266,100410.0
1778036283058684425,1812,1778036283058159208,F2008915,-41380.0,-41380.0,-41380.0,0.004987,0.041235,0.982672,0.11415,2.07689,8.0839,28.299999237060547,11.979999542236328,101.6500015258789,100410.0
1778036283095915188,1813,1778036283095549850,F2008915,-41420.0,-41420.0,-41420.0,0.033103,0.061388,0.99399,0.25169,-0.113,8.14961,28.299999237060547,12.0,101.6500015258789,100410.0
1778036283095918541,1816,1778036283095597909,F2008915,-41630.0,-41630.0,-41630.0,0.02504,0.040655,0.973236,0.45935,1.14149,8.42013,28.200000762939453,12.09000015258789,101.47000122070312,100412.0
1778036283133671537,1817,1778036283133297157,F2008915,-41470.0,-41470.0,-41470.0,0.025495,0.069117,0.99223,0.51485,1.16135,8.838,28.200000762939453,12.0600004196167,101.47000122070312,100412.0
1778036283133682010,1818,1778036283133360784,F2008915,-41270.0,-41270.0,-41270.0,-0.010251,0.047075,0.978154,0.49903,1.1647,8.98972,28.200000762939453,12.119999885559082,101.41000366210938,100412.0
1778036283133697731,1819,1778036283133401386,F2008915,-41560.0,-41560.0,-41560.0,0.007645,0.052644,0.989432,0.65938,-0.76175,8.76976,28.200000762939453,12.170000076293945,101.41000366210938,100412.0
1778036283133701469,1820,1778036283133447852,F2008915,-41370.0,-41370.0,-41370.0,0.026457,0.099499,1.019607,0.56848,-1.19279,8.92837,28.200000762939453,12.079999923706055,101.44000244140625,100412.0
1778036283167208981,1821,1778036283166974503,F2008915,-41520.0,-41520.0,-41520.0,-0.012166,0.088553,1.016528,0.36909,1.18529,9.18466,28.200000762939453,12.050000190734863,101.44000244140625,100412.0
1778036283167219837,1822,1778036283167035461,F2008915,-41620.0,-41620.0,-41620.0,-0.013048,0.064125,1.004354,0.3692,1.85177,9.05903,28.200000762939453,12.0,101.4000015258789,100414.0
1778036283167375491,1823,1778036283167086474,F2008915,-41410.0,-41410.0,-41410.0,0.020666,0.094133,1.021865,0.32648,0.42213,8.91713,28.200000762939453,12.119999885559082,101.4000015258789,100414.0
1778036283205010007,1824,1778036283204698453,F2008915,-41550.0,-41550.0,-41550.0,-0.00907,0.102839,1.035876,-0.04193,-0.05867,9.14782,28.200000762939453,12.010000228881836,101.4000015258789,100414.0
1778036283205036009,1826,1778036283204780634,F2008915,-41480.0,-41480.0,-41480.0,-0.005606,0.077541,1.023045,-0.31716,-0.03835,8.94666,28.299999237060547,12.109999656677246,101.45999908447266,100412.0
1778036283205044369,1827,1778036283204844836,F2008915,-41510.0,-41510.0,-41510.0,0.000477,0.09703,1.033054,-0.60324,1.17447,9.1275,28.200000762939453,11.979999542236328,101.45999908447266,100412.0
1778036283242927923,1828,1778036283242546094,F2008915,-41230.0,-41230.0,-41230.0,-0.014351,0.055036,1.015173,-0.89405,2.23773,9.17546,28.299999237060547,12.039999961853027,101.45999908447266,100412.0
1778036283242944854,1829,1778036283242626711,F2008915,-41440.0,-41440.0,-41440.0,0.018939,0.043711,1.015504,-0.92109,0.39379,8.96443,28.100000381469727,12.039999961853027,101.45999908447266,100412.0
1778036283242949278,1830,1778036283242679610,F2008915,-41280.0,-41280.0,-41280.0,0.007642,0.062508,1.034772,-1.23602,-0.10947,9.22619,28.299999237060547,12.09000015258789,101.45999908447266,100412.0
1778036283242953279,1831,1778036283242751464,F2008915,-41170.0,-41170.0,-41170.0,0.001191,0.031188,1.020379,-1.44196,1.23347,9.47988,28.299999237060547,12.140000343322754,101.45999908447266,100412.0
1778036283276599988,1832,1778036283276198952,F2008915,-41370.0,-41370.0,-41370.0,-0.002448,0.008906,1.008848,-1.42846,0.94193,9.23192,28.200000762939453,11.989999771118164,101.4000015258789,100414.0
1778036283276608454,1833,1778036283276265701,F2008915,-41140.0,-41140.0,-41140.0,0.025472,0.03667,1.015937,-1.54212,0.2149,9.1554,28.399999618530273,12.100000381469727,101.4000015258789,100414.0
1778036283276614321,1834,1778036283276316379,F2008915,-41270.0,-41270.0,-41270.0,-0.004861,0.02196,1.012559,-1.78982,1.43219,9.56014,28.299999237060547,12.0600004196167,101.4000015258789,100414.0
1778036283314340446,1835,1778036283314006150,F2008915,-41190.0,-41190.0,-41190.0,-0.029154,-0.032137,0.97984,-1.72586,1.52,9.78139,28.200000762939453,12.130000114440918,101.4000015258789,100414.0
1778036283314352593,1836,1778036283314087459,F2008915,-41150.0,-41150.0,-41150.0,-0.022952,-0.027427,0.979021,-1.49578,-0.18191,9.61159,28.200000762939453,11.970000267028809,101.43000030517578,100412.0
1778036283314357023,1837,1778036283314138319,F2008915,-41370.0,-41370.0,-41370.0,0.004101,-0.01546,0.987257,-1.3714,0.0292,9.79087,28.200000762939453,12.079999923706055,101.43000030517578,100412.0
1778036283314361074,1838,1778036283314186785,F2008915,-41150.0,-41150.0,-41150.0,-0.040899,-0.045979,0.983418,-1.17831,-0.75701,9.91117,28.299999237060547,12.050000190734863,101.4000015258789,100414.0
1778036283348136604,1839,1778036283347652839,F2008915,-41280.0,-41280.0,-41280.0,-0.031575,-0.034519,0.994405,-0.94019,-0.91316,9.73117,28.200000762939453,12.0,101.4000015258789,100414.0
1778036283348154063,1841,1778036283347761366,F2008915,-40920.0,-40920.0,-40920.0,-0.07569,-0.032002,1.018133,-0.97147,0.88231,9.49675,28.200000762939453,12.079999923706055,101.43000030517578,100412.0
1778036283385734431,1842,1778036283385347715,F2008915,-41160.0,-41160.0,-41160.0,-0.059894,-0.048459,1.005632,-0.80602,-1.479,9.38132,28.299999237060547,12.069999694824219,101.43000030517578,100412.0
1778036283385750090,1843,1778036283385410800,F2008915,-41010.0,-41010.0,-41010.0,-0.077126,-0.038845,1.019133,-0.71357,-2.95362,9.18088,28.200000762939453,12.130000114440918,101.43000030517578,100412.0
1778036283385797348,1844,1778036283385453765,F2008915,-41000.0,-41000.0,-41000.0,-0.050185,-0.047381,1.012907,-0.66146,-0.72002,9.1213,28.299999237060547,12.119999885559082,101.4000015258789,100414.0
1778036283385825650,1845,1778036283385517981,F2008915,-41180.0,-41180.0,-41180.0,-0.049402,-0.074371,1.001129,-0.44989,-0.02054,9.07851,28.299999237060547,12.069999694824219,101.4000015258789,100414.0
1778036283423574938,1846,1778036283423126445,F2008915,-40980.0,-40980.0,-40980.0,-0.011703,-0.039933,1.006823,-0.34678,-0.26786,8.84644,28.299999237060547,12.050000190734863,101.43000030517578,100412.0
1778036283423588413,1847,1778036283423212239,F2008915,-41090.0,-41090.0,-41090.0,0.006784,-0.019508,1.008976,-0.44206,-0.98948,8.90893,28.299999237060547,12.039999961853027,101.43000030517578,100412.0
1778036283423595464,1848,1778036283423260335,F2008915,-41010.0,-41010.0,-41010.0,-0.008112,-0.043056,0.995533,-0.49315,-2.41721,8.91491,28.299999237060547,12.119999885559082,101.45999908447266,100412.0
1778036283423600327,1849,1778036283423307605,F2008915,-41000.0,-41000.0,-41000.0,-0.000124,-0.030048,0.997499,-0.36285,-3.36444,8.78359,28.200000762939453,12.1899995803833,101.45999908447266,100412.0
1778036283457242890,1850,1778036283456781055,F2008915,-41250.0,-41250.0,-41250.0,-0.015254,-0.006177,1.021815,-0.46082,-1.17912,8.91427,28.200000762939453,12.069999694824219,101.4000015258789,100414.0
1778036283457271249,1851,1778036283456849723,F2008915,-41000.0,-41000.0,-41000.0,-0.00838,-0.02889,1.010208,-0.3715,0.27002,9.08092,28.200000762939453,12.09000015258789,101.4000015258789,100414.0
1778036283457286738,1852,1778036283456901355,F2008915,-41190.0,-41190.0,-41190.0,0.003357,-0.015127,1.011442,-0.31904,-1.41459,8.93827,28.299999237060547,12.069999694824219,101.37000274658203,100414.0
1778036283494962708,1853,1778036283494517632,F2008915,-41140.0,-41140.0,-41140.0,0.007048,0.017357,1.021221,-0.53948,-1.96313,8.81944,28.200000762939453,12.119999885559082,101.37000274658203,100414.0
1778036283494971404,1854,1778036283494574162,F2008915,-41000.0,-41000.0,-41000.0,0.01206,-0.019152,0.991781,-0.73115,-0.65883,8.87282,28.200000762939453,12.140000343322754,101.4000015258789,100414.0
1778036283494983305,1855,1778036283494626462,F2008915,-41280.0,-41280.0,-41280.0,0.024923,-0.049172,0.97026,-0.54176,-0.85784,8.72878,28.200000762939453,12.100000381469727,101.4000015258789,100414.0
1778036283495199199,1856,1778036283494703382,F2008915,-41120.0,-41120.0,-41120.0,0.017842,-0.023213,0.983196,-0.51092,-1.24923,8.7698,28.299999237060547,12.029999732971191,101.5199966430664,100412.0
1778036283528588877,1857,1778036283528300613,F2008915,-41080.0,-41080.0,-41080.0,0.001749,-0.040424,0.971402,-0.41551,-1.21617,8.94524,28.200000762939453,12.109999656677246,101.5199966430664,100412.0
1778036283528606749,1858,1778036283528377999,F2008915,-41120.0,-41120.0,-41120.0,-0.000558,-0.042041,0.974733,-0.2318,-2.00619,8.67804,28.100000381469727,12.119999885559082,101.55000305175781,100412.0
1778036283528875528,1859,1778036283528417302,F2008915,-41010.0,-41010.0,-41010.0,0.004533,0.006037,0.996842,-0.25927,-2.02945,8.49409,28.299999237060547,12.079999923706055,101.55000305175781,100412.0
1778036283529114052,1860,1778036283528521740,F2008915,-41230.0,-41230.0,-41230.0,0.001553,-0.005269,0.990336,-0.56857,0.24011,8.68903,28.200000762939453,12.039999961853027,101.48999786376953,100412.0
1778036283566187235,1861,1778036283565948714,F2008915,-41050.0,-41050.0,-41050.0,0.030496,-0.054799,0.957924,-0.45328,0.61223,8.66265,28.200000762939453,12.109999656677246,101.48999786376953,100412.0
1778036283566194672,1862,1778036283566011777,F2008915,-41070.0,-41070.0,-41070.0,0.038685,-0.04727,0.963942,-0.08025,-1.79072,8.6781,28.299999237060547,12.029999732971191,101.48999786376953,100412.0
1778036283566360422,1863,1778036283566063050,F2008915,-41170.0,-41170.0,-41170.0,0.028838,-0.026585,0.977188,0.04134,-2.35471,8.75575,28.299999237060547,12.119999885559082,101.48999786376953,100412.0
1778036283604246476,1864,1778036283603837200,F2008915,-40920.0,-40920.0,-40920.0,0.040705,-0.042316,0.967348,0.11327,-1.49898,8.61002,28.299999237060547,12.119999885559082,101.48999786376953,100412.0
1778036283604285521,1865,1778036283603923090,F2008915,-41170.0,-41170.0,-41170.0,0.053,-0.017643,0.979096,0.16812,-0.22977,8.51808,28.200000762939453,12.050000190734863,101.48999786376953,100412.0
1778036283604299252,1866,1778036283603975397,F2008915,-41100.0,-41100.0,-41100.0,0.050258,0.005681,0.99014,0.02311,0.35506,8.80874,28.299999237060547,12.039999961853027,101.5199966430664,100412.0
1778036283604309617,1867,1778036283604029041,F2008915,-40880.0,-40880.0,-40880.0,0.024414,-0.031113,0.976298,-0.20031,0.56214,8.89044,28.200000762939453,12.119999885559082,101.5199966430664,100412.0
1778036283638058871,1868,1778036283637564874,F2008915,-41090.0,-41090.0,-41090.0,0.034644,-0.040072,0.975365,-0.0697,-2.20131,8.8169,28.200000762939453,12.020000457763672,101.5199966430664,100412.0
1778036283638101080,1869,1778036283637666366,F2008915,-40830.0,-40830.0,-40830.0,0.007821,-0.003387,1.011476,-0.04045,-3.37582,8.8627,28.200000762939453,12.100000381469727,101.5199966430664,100412.0
1778036283638140154,1870,1778036283637721105,F2008915,-40890.0,-40890.0,-40890.0,0.01019,0.002271,1.018056,-0.24984,-0.55631,8.88349,28.200000762939453,12.100000381469727,101.5199966430664,100412.0
1778036283675423064,1871,1778036283675206519,F2008915,-40850.0,-40850.0,-40850.0,0.019789,-0.013104,1.012635,-0.34804,0.9321,8.63484,28.299999237060547,12.130000114440918,101.5199966430664,100412.0
1778036283675436695,1872,1778036283675285982,F2008915,-40560.0,-40560.0,-40560.0,0.034306,0.020523,1.029857,-0.62072,0.71977,8.36171,28.200000762939453,12.029999732971191,101.48999786376953,100412.0
1778036283675449977,1873,1778036283675333775,F2008915,-40790.0,-40790.0,-40790.0,0.005325,0.012519,1.030535,-1.09986,-0.17379,8.38482,28.299999237060547,12.020000457763672,101.48999786376953,100412.0
1778036283675868328,1874,1778036283675379139,F2008915,-40580.0,-40580.0,-40580.0,-0.032453,-0.041726,1.006069,-1.20291,-1.05597,8.21387,28.200000762939453,12.020000457763672,101.5199966430664,100412.0
1778036283713089589,1875,1778036283712908759,F2008915,-40680.0,-40680.0,-40680.0,-0.024891,-0.039291,1.015459,-1.0557,-2.70762,7.87957,28.200000762939453,12.079999923706055,101.5199966430664,100412.0
1778036283713166227,1876,1778036283712972254,F2008915,-40800.0,-40800.0,-40800.0,-0.012166,-0.024308,1.025351,-1.06383,-0.85384,7.80468,28.200000762939453,12.09000015258789,101.45999908447266,100412.0
1778036283713197974,1877,1778036283713012155,F2008915,-40570.0,-40570.0,-40570.0,-0.023814,-0.065985,1.000125,-1.07189,1.90866,7.75791,28.200000762939453,12.100000381469727,101.45999908447266,100412.0
1778036283713376976,1878,1778036283713050014,F2008915,-40830.0,-40830.0,-40830.0,0.013512,-0.081682,0.977078,-0.84734,1.86545,7.61267,28.100000381469727,12.100000381469727,101.43000030517578,100412.0
1778036283747019121,1879,1778036283746662470,F2008915,-40740.0,-40740.0,-40740.0,0.009463,-0.036858,1.002214,-0.6603,0.17102,7.70526,28.399999618530273,12.130000114440918,101.43000030517578,100412.0
1778036283747075795,1880,1778036283746759800,F2008915,-40640.0,-40640.0,-40640.0,0.017577,-0.049759,0.987927,-0.65636,-0.96036,7.79662,28.200000762939453,12.109999656677246,101.44999694824219,100412.0
1778036283747106951,1881,1778036283746836810,F2008915,-40780.0,-40780.0,-40780.0,0.009904,-0.072515,0.976813,-0.39365,-2.39969,7.59149,28.200000762939453,12.010000228881836,101.44999694824219,100412.0
1778036283784680334,1882,1778036283784362308,F2008915,-40550.0,-40550.0,-40550.0,0.013476,-0.040665,0.9956,-0.22166,-1.69461,7.4356,28.299999237060547,12.069999694824219,101.44999694824219,100412.0
1778036283784695118,1883,1778036283784451735,F2008915,-40680.0,-40680.0,-40680.0,-0.0136,-0.026824,1.006212,-0.20595,1.11871,7.52849,28.200000762939453,12.020000457763672,101.44999694824219,100412.0
1778036283784700340,1884,1778036283784509703,F2008915,-40660.0,-40660.0,-40660.0,-0.003727,-0.047701,0.984281,-0.06049,2.37913,7.57357,28.200000762939453,12.079999923706055,101.5199966430664,100412.0
1778036283785129347,1885,1778036283784560425,F2008915,-40560.0,-40560.0,-40560.0,0.003895,-0.033609,0.981804,0.08324,-0.22927,7.57689,28.299999237060547,12.0600004196167,101.5199966430664,100412.0
1778036283818362559,1886,1778036283818038144,F2008915,-40770.0,-40770.0,-40770.0,0.005459,-0.039679,0.982003,-0.00275,-1.55101,7.76844,28.299999237060547,12.09000015258789,101.5199966430664,100412.0
1778036283818409164,1887,1778036283818120241,F2008915,-40480.0,-40480.0,-40480.0,0.012416,-0.078824,0.960229,0.24217,-0.99926,7.87752,28.200000762939453,12.0600004196167,101.5199966430664,100412.0
1778036283818422963,1888,1778036283818189991,F2008915,-40640.0,-40640.0,-40640.0,0.012461,-0.065361,0.967836,0.72313,-1.07699,7.75644,28.299999237060547,12.0600004196167,101.5199966430664,100412.0
1778036283856139976,1889,1778036283855760422,F2008915,-40700.0,-40700.0,-40700.0,0.018427,-0.017265,0.992832,0.78531,0.22812,7.79749,28.200000762939453,12.050000190734863,101.5199966430664,100412.0
1778036283856163432,1890,1778036283855844583,F2008915,-40480.0,-40480.0,-40480.0,-0.008541,-0.031796,0.989537,0.72293,0.55961,7.85926,28.200000762939453,12.0600004196167,101.55000305175781,100412.0
1778036283856192054,1892,1778036283855965919,F2008915,-40550.0,-40550.0,-40550.0,-0.017171,0.010173,1.018717,0.72111,-2.61675,7.61843,28.200000762939453,12.100000381469727,101.5199966430664,100412.0
1778036283893835841,1893,1778036283893498887,F2008915,-40620.0,-40620.0,-40620.0,-0.010753,-0.00431,1.017423,0.53268,-1.1088,7.52743,28.399999618530273,12.15999984741211,101.5199966430664,100412.0
1778036283894055235,1894,1778036283893570561,F2008915,-40810.0,-40810.0,-40810.0,-0.013904,-0.012177,1.007783,0.47552,-0.19705,7.31717,28.200000762939453,12.109999656677246,101.55000305175781,100412.0
1778036283894082552,1895,1778036283893648933,F2008915,-40610.0,-40610.0,-40610.0,-0.000425,0.004708,1.014413,0.37083,-0.17397,7.32899,28.200000762939453,12.020000457763672,101.55000305175781,100412.0
1778036283894339277,1896,1778036283893702501,F2008915,-40840.0,-40840.0,-40840.0,-0.017649,-0.014255,1.003379,0.04238,0.15397,7.21477,28.100000381469727,12.119999885559082,101.55000305175781,100412.0
1778036283927334552,1897,1778036283927225411,F2008915,-40680.0,-40680.0,-40680.0,0.017081,-0.057138,0.968787,0.11381,-0.49409,6.99892,28.200000762939453,12.09000015258789,101.55000305175781,100412.0
1778036283927424512,1898,1778036283927268095,F2008915,-40630.0,-40630.0,-40630.0,0.029012,-0.042642,0.980429,0.30643,-2.28357,6.98779,28.399999618530273,12.039999961853027,101.55000305175781,100412.0
1778036283927431068,1899,1778036283927301215,F2008915,-40880.0,-40880.0,-40880.0,0.004107,-0.021574,0.994395,0.26871,-1.47698,6.98242,28.200000762939453,12.029999732971191,101.55000305175781,100412.0
1778036283965216403,1900,1778036283964991920,F2008915,-40620.0,-40620.0,-40620.0,0.011301,-0.0333,0.990196,0.25692,-0.13768,6.94744,28.299999237060547,11.970000267028809,101.55000305175781,100412.0
1778036283965321391,1901,1778036283965064577,F2008915,-40730.0,-40730.0,-40730.0,0.012561,-0.027202,0.992964,0.29621,-0.11483,6.87595,28.299999237060547,12.0600004196167,101.55000305175781,100412.0
1778036283965329588,1902,1778036283965107465,F2008915,-40710.0,-40710.0,-40710.0,0.03648,-0.015377,0.993534,0.20427,-0.39752,6.93357,28.200000762939453,12.0,101.5199966430664,100412.0
1778036283965335315,1903,1778036283965147295,F2008915,-40450.0,-40450.0,-40450.0,0.036587,-0.033531,0.987084,0.11327,-0.14748,6.96979,28.299999237060547,12.09000015258789,101.5199966430664,100412.0
1778036284003029315,1904,1778036284002771543,F2008915,-40690.0,-40690.0,-40690.0,0.059529,-0.045002,0.982433,0.227,-1.04909,6.82925,28.200000762939453,12.079999923706055,101.55000305175781,100412.0
1778036284003138653,1905,1778036284002866153,F2008915,-40580.0,-40580.0,-40580.0,0.045457,-0.025131,0.99065,0.20153,-0.64462,6.88048,28.200000762939453,12.029999732971191,101.55000305175781,100412.0
1778036284003161426,1906,1778036284002922391,F2008915,-40630.0,-40630.0,-40630.0,0.025654,-0.052434,0.981487,0.23236,0.60741,7.02606,28.200000762939453,12.029999732971191,101.58000183105469,100410.0
1778036284003437110,1907,1778036284002974389,F2008915,-40610.0,-40610.0,-40610.0,0.032334,-0.069348,0.968589,0.53454,0.47906,7.13057,28.200000762939453,11.989999771118164,101.58000183105469,100410.0
1778036284036939755,1908,1778036284036487225,F2008915,-40320.0,-40320.0,-40320.0,0.036958,-0.030988,0.988628,0.88473,-1.3698,7.20866,28.299999237060547,12.020000457763672,101.63999938964844,100410.0
1778036284036963178,1909,1778036284036584985,F2008915,-40470.0,-40470.0,-40470.0,0.016307,-0.011604,1.000776,0.76795,-1.50664,7.15061,28.299999237060547,12.069999694824219,101.63999938964844,100410.0
1778036284036975553,1910,1778036284036662190,F2008915,-40300.0,-40300.0,-40300.0,0.026711,-0.026099,0.999639,0.71206,0.03121,7.08662,28.299999237060547,12.069999694824219,101.61000061035156,100410.0
1778036284074531238,1911,1778036284074193585,F2008915,-40230.0,-40230.0,-40230.0,0.012964,-0.002283,1.019451,0.71203,-0.14287,7.0802,28.200000762939453,11.989999771118164,101.61000061035156,100410.0
1778036284074640996,1912,1778036284074286755,F2008915,-40370.0,-40370.0,-40370.0,0.003861,0.000386,1.030056,0.56103,0.51165,7.05225,28.399999618530273,12.010000228881836,101.58000183105469,100410.0
1778036284074682235,1913,1778036284074344485,F2008915,-40090.0,-40090.0,-40090.0,0.022725,-0.029713,1.016804,0.63748,-0.23313,7.0593,28.299999237060547,12.0,101.58000183105469,100410.0
1778036284074709872,1914,1778036284074395865,F2008915,-40270.0,-40270.0,-40270.0,0.020282,-0.004161,1.029259,0.7022,-1.76156,6.8559,28.200000762939453,12.029999732971191,101.58000183105469,100410.0
1778036284107995566,1915,1778036284107832180,F2008915,-40240.0,-40240.0,-40240.0,-0.005552,0.033531,1.050607,0.41252,-1.55798,6.74961,28.399999618530273,12.0600004196167,101.58000183105469,100410.0
1778036284108049412,1916,1778036284107877725,F2008915,-40160.0,-40160.0,-40160.0,0.001048,0.003836,1.0377,-0.01428,1.32897,6.69154,28.200000762939453,12.0,101.44999694824219,100412.0
1778036284108053900,1917,1778036284107905251,F2008915,-40320.0,-40320.0,-40320.0,0.013632,-0.014989,1.029099,-0.15236,0.76021,6.48978,28.299999237060547,12.050000190734863,101.44999694824219,100412.0
1778036284146094652,1918,1778036284145765273,F2008915,-40060.0,-40060.0,-40060.0,0.030497,0.007714,1.038406,-0.32819,-0.506,6.37792,28.200000762939453,12.050000190734863,101.43000030517578,100412.0
1778036284146191833,1919,1778036284145864593,F2008915,-40180.0,-40180.0,-40180.0,0.034879,-0.015077,1.031709,-0.72901,-0.12258,6.33339,28.299999237060547,12.109999656677246,101.43000030517578,100412.0
1778036284146418026,1920,1778036284146212169,F2008915,-40180.0,-40180.0,-40180.0,0.024819,-0.047245,1.008376,-0.80359,0.33122,6.2305,28.200000762939453,12.069999694824219,101.4000015258789,100414.0
1778036284146798410,1921,1778036284146472822,F2008915,-39960.0,-39960.0,-39960.0,0.042643,-0.048492,0.992215,-0.80844,0.4653,6.13623,28.200000762939453,12.0600004196167,101.4000015258789,100414.0
1778036284183843982,1922,1778036284183487159,F2008915,-40260.0,-40260.0,-40260.0,0.048893,-0.045164,0.982748,-0.79989,1.8471,6.11698,28.299999237060547,12.039999961853027,101.4000015258789,100414.0
1778036284183857528,1923,1778036284183575388,F2008915,-40100.0,-40100.0,-40100.0,0.044934,-0.051862,0.979052,-0.6596,0.937,5.94092,28.399999618530273,12.130000114440918,101.4000015258789,100414.0
1778036284183862223,1924,1778036284183648568,F2008915,-40170.0,-40170.0,-40170.0,0.037175,-0.029683,0.987648,-0.5133,-0.80507,5.88892,28.299999237060547,12.0,101.4000015258789,100414.0
1778036284183866792,1925,1778036284183696531,F2008915,-40320.0,-40320.0,-40320.0,0.006576,-0.003292,1.016459,-0.67767,0.37773,6.03373,28.200000762939453,12.130000114440918,101.4000015258789,100414.0
1778036284217622118,1926,1778036284217052760,F2008915,-40060.0,-40060.0,-40060.0,-0.013908,-0.068963,0.971688,-0.68609,1.90747,6.05224,28.200000762939453,12.020000457763672,101.33999633789062,100414.0
1778036284217673629,1928,1778036284217261558,F2008915,-40120.0,-40120.0,-40120.0,0.04831,-0.023091,0.990775,-0.26225,0.75366,5.70442,28.200000762939453,12.050000190734863,101.4000015258789,100414.0
1778036284255349996,1929,1778036284254838085,F2008915,-40110.0,-40110.0,-40110.0,0.024001,-0.063741,0.981158,-0.24297,1.09893,5.7205,28.299999237060547,12.0600004196167,101.4000015258789,100414.0
1778036284255361427,1930,1778036284254935105,F2008915,-40300.0,-40300.0,-40300.0,0.011662,-0.061922,0.985511,-0.16544,1.32514,5.51117,28.299999237060547,12.079999923706055,101.37000274658203,100414.0
1778036284255366378,1931,1778036284254993477,F2008915,-40020.0,-40020.0,-40020.0,0.014097,-0.040778,1.004075,-0.18086,0.88903,5.57023,28.299999237060547,11.970000267028809,101.37000274658203,100414.0
