%time,field.header.seq,field.header.stamp,field.header.frame_id,field.Mag.x,field.Mag.y,field.Mag.z,field.Accel.x,field.Accel.y,field.Accel.z,field.Gyro.x,field.Gyro.y,field.Gyro.z,field.Temp,field.Vinp,field.Pressure,field.Barometric_Height
1775732950317299929,1237,1775732950317171530,F2008915,4840.0,4840.0,4840.0,0.008561,-6.2e-05,0.993354,-0.22731,-0.28474,-0.04693,23.799999237060547,12.100000381469727,103.11000061035156,99736.0
1775732950317312023,1238,1775732950317203342,F2008915,4830.0,4830.0,4830.0,0.022814,0.000164,0.99487,-0.1397,-0.02527,0.0657,23.799999237060547,12.09000015258789,103.05000305175781,99738.0
1775732950317350928,1239,1775732950317223555,F2008915,4780.0,4780.0,4780.0,-0.006922,-0.023613,1.016812,0.04645,0.09238,0.04615,23.799999237060547,12.079999923706055,103.01000213623047,99738.0
1775732950317355333,1240,1775732950317258119,F2008915,4820.0,4820.0,4820.0,0.008922,-0.003209,1.004016,-0.28463,-0.16615,0.03102,23.899999618530273,12.029999732971191,103.11000061035156,99736.0
1775732950392693320,1241,1775732950392636408,F2008915,4750.0,4750.0,4750.0,0.007675,-0.019265,1.001589,-0.17747,-0.04908,0.01836,23.799999237060547,12.109999656677246,103.08000183105469,99738.0
1775732950392873194,1242,1775732950392781404,F2008915,4780.0,4780.0,4780.0,0.00605,-0.011041,0.994166,0.08667,0.00487,-0.05802,23.799999237060547,12.09000015258789,103.05000305175781,99738.0
1775732950392876801,1243,1775732950392809191,F2008915,4800.0,4800.0,4800.0,0.002848,-0.013635,0.993252,-0.26015,-0.05206,-0.04696,23.799999237060547,12.050000190734863,103.08000183105469,99738.0
1775732950392882075,1244,1775732950392830123,F2008915,4700.0,4700.0,4700.0,-0.001061,-0.003694,0.993654,0.30646,0.10463,0.00168,23.799999237060547,12.15999984741211,102.98999786376953,99738.0
1775732950460132460,1245,1775732950459989006,F2008915,4760.0,4760.0,4760.0,0.002994,-0.009585,0.996534,-0.06391,0.06721,-0.02542,23.700000762939453,12.149999618530273,102.95999908447266,99738.0
1775732950460139902,1246,1775732950460025979,F2008915,4790.0,4790.0,4790.0,-0.010585,-0.00287,1.004896,0.04008,-0.08049,0.06008,23.799999237060547,12.079999923706055,102.98999786376953,99738.0
1775732950460142205,1247,1775732950460046365,F2008915,4790.0,4790.0,4790.0,0.008325,-0.006752,0.996845,0.13896,-0.02301,0.03726,23.799999237060547,12.130000114440918,102.98999786376953,99738.0
1775732950535628241,1248,1775732950535518071,F2008915,4800.0,4800.0,4800.0,0.011361,-0.011578,0.99715,-0.20619,-0.02675,0.00498,23.799999237060547,12.100000381469727,102.98999786376953,99738.0
1775732950535636854,1250,1775732950535570028,F2008915,4770.0,4770.0,4770.0,0.014057,-0.001103,0.995176,-0.11337,0.03399,-0.02946,23.899999618530273,12.15999984741211,103.06999969482422,99738.0
1775732950535750610,1251,1775732950535665234,F2008915,4830.0,4830.0,4830.0,-0.003575,-0.011474,1.003403,-0.09172,-0.02365,0.0233,23.700000762939453,12.149999618530273,103.04000091552734,99738.0
1775732950602976752,1252,1775732950602904087,F2008915,4840.0,4840.0,4840.0,-0.003548,-0.004205,0.998235,0.07415,0.04351,-0.01229,23.700000762939453,12.0600004196167,103.06999969482422,99738.0
1775732950602999578,1253,1775732950602939059,F2008915,4790.0,4790.0,4790.0,0.012999,-0.010874,0.990296,-0.12801,-0.07735,-0.03236,23.899999618530273,12.050000190734863,103.12999725341797,99736.0
1775732950603004555,1254,1775732950602961006,F2008915,4720.0,4720.0,4720.0,-0.008962,-0.013453,1.002393,0.26172,0.03181,0.04709,23.799999237060547,12.039999961853027,103.12999725341797,99736.0
1775732950678444166,1255,1775732950678342340,F2008915,4800.0,4800.0,4800.0,0.00574,-0.00537,0.995459,0.07044,-0.00487,0.01149,23.799999237060547,12.149999618530273,103.16000366210938,99736.0
1775732950678468582,1256,1775732950678371422,F2008915,4810.0,4810.0,4810.0,0.003624,-0.011637,1.001817,-0.11348,-0.01198,0.00299,23.700000762939453,12.100000381469727,103.16000366210938,99736.0
1775732950678473626,1257,1775732950678391859,F2008915,4800.0,4800.0,4800.0,-0.006834,-0.008391,1.007787,0.1994,0.05378,0.00868,23.700000762939453,12.1899995803833,103.16000366210938,99736.0
1775732950678512312,1258,1775732950678411228,F2008915,4830.0,4830.0,4830.0,0.008049,-0.006913,1.000188,-0.23884,-0.09178,-0.06168,23.899999618530273,12.100000381469727,103.22000122070312,99736.0
1775732950753922261,1259,1775732950753864393,F2008915,4770.0,4770.0,4770.0,-0.005213,-0.011371,1.006029,-0.03815,-0.06554,0.00642,23.600000381469727,12.119999885559082,103.22000122070312,99736.0
1775732950754034906,1260,1775732950754002980,F2008915,4830.0,4830.0,4830.0,0.004064,-0.006362,0.996351,0.09826,-0.03802,-0.06139,23.700000762939453,12.220000267028809,103.19000244140625,99736.0
1775732950754057462,1261,1775732950754025629,F2008915,4870.0,4870.0,4870.0,0.003515,-0.010267,0.995606,-0.24177,-0.09442,-0.01391,23.799999237060547,12.130000114440918,103.22000122070312,99736.0
1775732950754077379,1262,1775732950754037877,F2008915,4750.0,4750.0,4750.0,-0.002068,-0.004572,0.996066,0.2639,0.01885,0.00173,23.899999618530273,12.130000114440918,103.19000244140625,99736.0
1775732950821464226,1263,1775732950821268876,F2008915,4760.0,4760.0,4760.0,0.013407,-0.006042,0.989571,-0.04711,0.03078,-0.03848,23.700000762939453,12.119999885559082,103.0999984741211,99738.0
1775732950821472325,1265,1775732950821304976,F2008915,4760.0,4760.0,4760.0,0.006775,-0.001273,0.996976,0.18346,0.03014,0.0291,23.899999618530273,12.100000381469727,103.0999984741211,99736.0
1775732950896718417,1266,1775732950896650907,F2008915,4780.0,4780.0,4780.0,0.011019,-0.012942,0.99893,-0.18733,-0.05238,-0.00995,23.799999237060547,12.109999656677246,103.01000213623047,99738.0
1775732950896725118,1267,1775732950896672742,F2008915,4810.0,4810.0,4810.0,-0.008022,-0.012791,1.005953,0.09305,-0.02077,0.01141,23.799999237060547,12.100000381469727,102.9800033569336,99738.0
1775732950896727135,1269,1775732950896700335,F2008915,4830.0,4830.0,4830.0,-0.000752,-0.015976,1.003209,-0.10081,0.02455,-0.02935,23.700000762939453,12.0600004196167,103.04000091552734,99738.0
1775732950972231642,1270,1775732950972180517,F2008915,4800.0,4800.0,4800.0,-0.003378,-0.004267,1.001172,0.17206,0.05432,-0.00928,23.700000762939453,12.119999885559082,103.06999969482422,99738.0
1775732950972254089,1271,1775732950972205322,F2008915,4780.0,4780.0,4780.0,0.006855,-0.003628,0.997337,-0.11339,-0.03139,-0.02563,23.700000762939453,12.130000114440918,103.04000091552734,99738.0
1775732950972257488,1272,1775732950972216571,F2008915,4810.0,4810.0,4810.0,-0.016041,-0.01707,1.010792,0.1299,-0.04517,0.0543,23.799999237060547,12.109999656677246,103.05000305175781,99738.0
1775732950972368750,1273,1775732950972227754,F2008915,4840.0,4840.0,4840.0,0.007683,-0.001313,0.993083,-0.02658,-0.07125,0.00737,23.700000762939453,12.109999656677246,102.95999908447266,99738.0
1775732951039635614,1274,1775732951039563294,F2008915,4800.0,4800.0,4800.0,0.009935,-0.008645,0.992782,-0.12918,-0.05803,0.01305,23.799999237060547,12.130000114440918,102.95999908447266,99738.0
1775732951039645134,1275,1775732951039588420,F2008915,4760.0,4760.0,4760.0,0.000226,-0.009749,0.998491,0.18458,0.04495,0.02258,23.700000762939453,12.0,102.98999786376953,99738.0
1775732951039651807,1276,1775732951039605336,F2008915,4780.0,4780.0,4780.0,0.013311,-0.002261,0.993275,-0.09911,-0.0124,-0.04795,23.799999237060547,12.020000457763672,103.01000213623047,99738.0
1775732951115178341,1277,1775732951115060689,F2008915,4790.0,4790.0,4790.0,-0.005007,-0.006192,1.005143,-0.0406,0.02555,-0.00582,23.799999237060547,12.0,103.04000091552734,99738.0
1775732951115181578,1278,1775732951115084381,F2008915,4820.0,4820.0,4820.0,0.003885,-0.005608,0.999814,0.11794,0.03907,-0.02594,23.700000762939453,12.069999694824219,103.01000213623047,99738.0
1775732951115186994,1280,1775732951115108708,F2008915,4710.0,4710.0,4710.0,-0.003047,-0.006769,1.000901,0.30094,0.11657,0.04661,23.899999618530273,12.09000015258789,102.9800033569336,99738.0
1775732951182493317,1281,1775732951182393646,F2008915,4750.0,4750.0,4750.0,0.007679,-0.008599,0.995499,-0.07646,0.05398,0.02665,23.600000381469727,12.100000381469727,103.04000091552734,99738.0
1775732951182502907,1282,1775732951182415929,F2008915,4830.0,4830.0,4830.0,-0.010227,-0.015247,1.005849,-0.04083,-0.00105,0.08051,23.700000762939453,12.130000114440918,103.01000213623047,99738.0
1775732951182509432,1283,1775732951182428499,F2008915,4770.0,4770.0,4770.0,-0.003008,-0.008233,1.000698,0.0534,0.03354,0.00216,23.799999237060547,12.119999885559082,103.01000213623047,99738.0
1775732951258034416,1284,1775732951257928131,F2008915,4750.0,4750.0,4750.0,0.008699,-0.014924,0.994422,-0.23732,-0.08077,-0.04996,23.799999237060547,11.960000038146973,103.01000213623047,99738.0
1775732951258062073,1285,1775732951257951734,F2008915,4770.0,4770.0,4770.0,-0.004869,-0.013098,1.003222,0.17766,-0.05717,-0.01378,23.799999237060547,12.140000343322754,103.04000091552734,99738.0
1775732951258067093,1287,1775732951257975159,F2008915,4860.0,4860.0,4860.0,-0.003215,-0.01665,1.006271,-0.02581,-0.08962,0.01346,23.799999237060547,12.100000381469727,103.06999969482422,99738.0
1775732951333435664,1288,1775732951333377143,F2008915,4890.0,4890.0,4890.0,-0.000274,-0.008693,1.001194,0.21742,-0.01747,0.00207,23.799999237060547,12.109999656677246,103.01000213623047,99738.0
1775732951333451072,1289,1775732951333399840,F2008915,4810.0,4810.0,4810.0,0.01556,-0.00753,0.992031,-0.04881,-0.05263,-0.00041,23.799999237060547,12.109999656677246,103.01000213623047,99738.0
1775732951333452530,1291,1775732951333425478,F2008915,4830.0,4830.0,4830.0,0.00828,-0.005648,0.995274,0.25483,0.07527,-0.01557,23.899999618530273,12.010000228881836,103.06999969482422,99738.0
1775732951400866656,1292,1775732951400802614,F2008915,4840.0,4840.0,4840.0,0.000203,-0.009131,1.000849,-0.10652,0.02323,-0.01892,23.799999237060547,12.109999656677246,103.0999984741211,99736.0
1775732951400877848,1293,1775732951400825626,F2008915,4790.0,4790.0,4790.0,-0.008222,-0.005736,1.002929,0.31119,0.03465,-0.03273,23.700000762939453,12.100000381469727,103.0999984741211,99736.0
1775732951400879079,1294,1775732951400842844,F2008915,4800.0,4800.0,4800.0,0.014176,-0.001127,0.989733,-0.09205,-0.01502,-0.06491,23.799999237060547,12.079999923706055,102.9800033569336,99738.0
1775732951476440703,1295,1775732951476239140,F2008915,4800.0,4800.0,4800.0,-0.00294,-0.005588,1.000702,0.13889,0.03072,0.00697,23.799999237060547,12.170000076293945,102.91999816894531,99740.0
1775732951476444944,1296,1775732951476260119,F2008915,4800.0,4800.0,4800.0,0.000352,-0.001203,0.999124,0.19822,0.07813,-0.02066,23.799999237060547,12.170000076293945,102.9800033569336,99738.0
1775732951476446533,1298,1775732951476283563,F2008915,4860.0,4860.0,4860.0,-0.009415,-0.004948,1.00537,0.16322,0.00685,0.00951,23.799999237060547,12.0600004196167,102.9800033569336,99738.0
1775732951551838535,1299,1775732951551777313,F2008915,4850.0,4850.0,4850.0,0.010596,-0.003929,0.99464,-0.18268,-0.03959,0.00856,23.700000762939453,12.170000076293945,103.01000213623047,99738.0
1775732951551865154,1300,1775732951551799960,F2008915,4890.0,4890.0,4890.0,0.000228,-0.009054,0.999654,-0.18418,-0.07622,0.03456,23.799999237060547,12.1899995803833,102.95999908447266,99738.0
1775732951551866810,1301,1775732951551811784,F2008915,4830.0,4830.0,4830.0,2.6e-05,-0.006022,0.999503,0.2291,0.01656,0.02287,23.700000762939453,12.119999885559082,102.95999908447266,99738.0
1775732951551878124,1302,1775732951551823196,F2008915,4840.0,4840.0,4840.0,0.006512,-0.011047,0.998181,-0.27667,-0.0861,-0.02562,23.899999618530273,12.069999694824219,102.93000030517578,99740.0
1775732951619271887,1303,1775732951619190165,F2008915,4800.0,4800.0,4800.0,-0.009339,-0.011155,1.005753,0.05699,-0.02068,0.03199,23.799999237060547,12.0600004196167,102.95999908447266,99738.0
1775732951619276265,1304,1775732951619216359,F2008915,4790.0,4790.0,4790.0,0.014988,-0.007776,0.990044,-0.14989,-0.03792,-0.01304,23.799999237060547,12.140000343322754,102.93000030517578,99740.0
1775732951619282025,1305,1775732951619231131,F2008915,4820.0,4820.0,4820.0,0.005544,-0.0139,0.997201,0.01962,-0.01942,0.0415,23.700000762939453,12.149999618530273,102.95999908447266,99738.0
1775732951694641253,1306,1775732951694581483,F2008915,4780.0,4780.0,4780.0,-0.000905,-0.007056,0.999119,0.16073,0.06892,0.00775,23.799999237060547,12.210000038146973,102.98999786376953,99738.0
1775732951694659294,1307,1775732951694606468,F2008915,4800.0,4800.0,4800.0,0.009352,-0.007439,0.997022,-0.06628,0.02547,-0.0311,23.799999237060547,12.109999656677246,103.01000213623047,99738.0
1775732951694702525,1309,1775732951694629750,F2008915,4830.0,4830.0,4830.0,0.008536,-0.005067,0.994975,0.13194,0.02276,-0.06515,23.799999237060547,12.130000114440918,103.06999969482422,99738.0
1775732951762041002,1310,1775732951761967000,F2008915,4830.0,4830.0,4830.0,0.005124,-0.012078,0.997846,-0.19914,-0.02655,0.01856,23.700000762939453,12.09000015258789,103.0999984741211,99736.0
1775732951762076762,1311,1775732951761990701,F2008915,4760.0,4760.0,4760.0,-0.005119,-0.00734,1.002397,0.3191,0.07376,0.03462,23.700000762939453,12.199999809265137,103.06999969482422,99738.0
1775732951762080682,1312,1775732951762009150,F2008915,4820.0,4820.0,4820.0,0.008036,-0.003743,0.997842,-0.04077,-0.05476,-0.06137,23.700000762939453,12.130000114440918,103.06999969482422,99738.0
1775732951837525127,1313,1775732951837447786,F2008915,4850.0,4850.0,4850.0,-0.0087,-0.009559,1.007463,0.05655,-0.00894,-0.01247,23.799999237060547,12.140000343322754,103.0999984741211,99736.0
1775732951837562262,1314,1775732951837473316,F2008915,4810.0,4810.0,4810.0,0.004838,-0.003012,0.997663,0.0953,-0.02108,0.00121,23.799999237060547,12.109999656677246,103.12999725341797,99736.0
1775732951837569086,1316,1775732951837499599,F2008915,4760.0,4760.0,4760.0,-0.003784,-0.005412,1.001144,0.15553,0.05706,0.02167,23.799999237060547,12.0600004196167,103.16000366210938,99736.0
1775732951913062418,1317,1775732951912948936,F2008915,4820.0,4820.0,4820.0,0.008895,-0.002234,0.995403,-0.00283,-0.00327,0.00039,23.799999237060547,12.039999961853027,103.19000244140625,99736.0
1775732951913075075,1318,1775732951912977004,F2008915,4880.0,4880.0,4880.0,-0.005804,-0.011278,1.004853,-0.17734,-0.04773,-0.01669,23.799999237060547,12.050000190734863,103.0999984741211,99736.0
1775732951913082059,1320,1775732951913009563,F2008915,4830.0,4830.0,4830.0,0.010684,-0.006173,0.992836,-0.29587,-0.02335,0.0028,23.799999237060547,12.180000305175781,103.12999725341797,99736.0
1775732951980466210,1321,1775732951980365497,F2008915,4820.0,4820.0,4820.0,-0.007477,-0.010086,1.002763,0.21045,0.02246,0.04357,23.899999618530273,12.109999656677246,103.12999725341797,99736.0
1775732951980475494,1322,1775732951980392388,F2008915,4800.0,4800.0,4800.0,0.006729,-0.003919,0.996701,-0.02672,0.03956,-0.00613,23.799999237060547,12.050000190734863,103.12999725341797,99736.0
1775732951980480352,1323,1775732951980419105,F2008915,4780.0,4780.0,4780.0,-0.003061,-0.01145,1.003592,-0.18033,-0.07621,0.01645,23.799999237060547,12.140000343322754,103.0999984741211,99738.0
1775732952056020247,1324,1775732952055931985,F2008915,4690.0,4690.0,4690.0,-0.001684,-0.005898,0.999575,0.09549,0.00063,0.06181,23.799999237060547,12.039999961853027,103.16000366210938,99736.0
1775732952056032682,1325,1775732952055956441,F2008915,4750.0,4750.0,4750.0,0.014556,-0.010209,0.991649,-0.21051,-0.00964,0.01865,23.799999237060547,12.039999961853027,103.12999725341797,99736.0
1775732952056041163,1326,1775732952055985149,F2008915,4760.0,4760.0,4760.0,-0.004777,-0.014676,1.002426,0.10715,0.01774,0.03421,23.899999618530273,12.079999923706055,103.12999725341797,99736.0
1775732952056048112,1327,1775732952055996404,F2008915,4820.0,4820.0,4820.0,0.004608,-0.007412,0.998484,0.18034,0.01397,-0.04473,23.700000762939453,12.0,103.16000366210938,99736.0
1775732952123333719,1328,1775732952123268034,F2008915,4890.0,4890.0,4890.0,0.003056,-0.011186,1.001554,-0.17388,-0.04068,-0.00568,23.799999237060547,12.039999961853027,103.19000244140625,99736.0
1775732952123336956,1329,1775732952123289281,F2008915,4750.0,4750.0,4750.0,-0.004245,-0.008098,1.002392,0.17968,0.01656,0.02363,23.799999237060547,12.130000114440918,103.0999984741211,99738.0
1775732952123341490,1330,1775732952123301461,F2008915,4750.0,4750.0,4750.0,0.015004,-0.001477,0.99134,-0.13754,-0.03594,-0.05061,23.899999618530273,12.130000114440918,103.0999984741211,99738.0
1775732952198735997,1331,1775732952198656942,F2008915,4780.0,4780.0,4780.0,0.001006,-0.010623,1.001222,0.08716,0.04638,0.02818,23.799999237060547,12.100000381469727,103.06999969482422,99738.0
1775732952198753327,1332,1775732952198680843,F2008915,4770.0,4770.0,4770.0,0.00175,-0.007975,1.000502,0.21366,0.10536,0.01431,23.899999618530273,12.109999656677246,103.06999969482422,99738.0
1775732952198755278,1334,1775732952198706558,F2008915,4710.0,4710.0,4710.0,-0.004016,-0.006251,1.001807,0.17348,0.0775,-0.00774,23.700000762939453,12.15999984741211,103.22000122070312,99736.0
1775732952274263366,1335,1775732952274212071,F2008915,4780.0,4780.0,4780.0,0.009038,-0.002662,0.993544,-0.10288,0.0487,-0.02914,23.700000762939453,12.010000228881836,103.27999877929688,99734.0
1775732952274283476,1336,1775732952274249628,F2008915,4810.0,4810.0,4810.0,-0.003374,-0.006591,1.000785,-0.08836,0.03863,0.03025,23.799999237060547,12.109999656677246,103.25,99736.0
1775732952274292917,1337,1775732952274275210,F2008915,4810.0,4810.0,4810.0,-0.008409,-0.000728,1.00147,0.1372,0.11052,0.01243,23.700000762939453,12.029999732971191,103.27999877929688,99734.0
1775732952274321219,1338,1775732952274299098,F2008915,4840.0,4840.0,4840.0,0.005229,-0.007509,0.996928,-0.28243,-0.11167,0.01604,23.799999237060547,12.100000381469727,103.19000244140625,99736.0
1775732952341646058,1339,1775732952341574254,F2008915,4760.0,4760.0,4760.0,-0.004289,-0.012451,1.002465,-0.01888,0.02201,0.05147,23.799999237060547,11.989999771118164,103.22000122070312,99736.0
1775732952341669999,1340,1775732952341597914,F2008915,4790.0,4790.0,4790.0,0.007266,-0.009265,0.995565,-0.04598,0.05934,0.00098,23.799999237060547,12.130000114440918,103.25,99736.0
1775732952341679492,1341,1775732952341615072,F2008915,4840.0,4840.0,4840.0,-0.000772,-0.013876,1.002711,0.00097,-0.09649,0.01466,23.899999618530273,12.109999656677246,103.22000122070312,99736.0
1775732952417199284,1342,1775732952417123041,F2008915,4790.0,4790.0,4790.0,-0.000957,-0.00983,1.002757,0.1941,-0.03809,-0.00643,23.799999237060547,12.199999809265137,103.25,99736.0
1775732952417202714,1343,1775732952417147632,F2008915,4800.0,4800.0,4800.0,0.011586,-0.010163,0.996914,-0.13539,-0.08757,-0.02102,23.899999618530273,12.050000190734863,103.27999877929688,99734.0
1775732952417203871,1345,1775732952417174512,F2008915,4790.0,4790.0,4790.0,0.010694,-0.002808,0.993124,0.13951,0.02382,-0.02759,23.799999237060547,12.039999961853027,103.27999877929688,99734.0
1775732952492583512,1346,1775732952492513756,F2008915,4800.0,4800.0,4800.0,0.005135,-0.015691,0.999635,-0.22233,0.01487,-0.00033,23.799999237060547,12.140000343322754,103.25,99736.0
1775732952492590084,1347,1775732952492536704,F2008915,4800.0,4800.0,4800.0,-0.006848,-0.004991,1.00227,0.13111,0.058,0.00447,23.799999237060547,12.109999656677246,103.27999877929688,99734.0
1775732952492594878,1348,1775732952492548510,F2008915,4820.0,4820.0,4820.0,0.011012,-0.001346,0.993664,-0.0188,-0.00579,-0.04619,23.799999237060547,12.170000076293945,103.25,99736.0
1775732952492721225,1349,1775732952492559578,F2008915,4800.0,4800.0,4800.0,-0.006047,-0.009684,1.003263,-0.09235,0.01766,0.03123,23.799999237060547,12.100000381469727,103.19000244140625,99736.0
1775732952559950891,1350,1775732952559899807,F2008915,4830.0,4830.0,4830.0,0.00226,0.004483,0.995012,0.09967,0.02933,-0.01055,23.799999237060547,12.0600004196167,103.19000244140625,99736.0
1775732952559954724,1351,1775732952559928103,F2008915,4800.0,4800.0,4800.0,0.00737,-0.001828,0.994756,-0.27857,-0.04448,0.01473,23.799999237060547,12.130000114440918,103.19000244140625,99736.0
1775732952559983486,1352,1775732952559939981,F2008915,4740.0,4740.0,4740.0,-0.009516,-0.00597,1.00513,0.15407,-0.01604,0.04872,23.799999237060547,12.149999618530273,103.19000244140625,99736.0
1775732952635618587,1353,1775732952635456628,F2008915,4830.0,4830.0,4830.0,0.009461,-0.005788,0.996965,-0.17841,-0.04675,0.01351,23.799999237060547,12.15999984741211,103.19000244140625,99736.0
1775732952635732754,1354,1775732952635512849,F2008915,4840.0,4840.0,4840.0,0.000988,-0.013467,1.002639,-0.16682,0.00993,0.03219,23.700000762939453,12.100000381469727,103.16000366210938,99736.0
1775732952635745121,1355,1775732952635546179,F2008915,4830.0,4830.0,4830.0,0.003318,-0.008063,1.000509,0.141,0.09395,-0.00384,23.799999237060547,12.119999885559082,103.12999725341797,99736.0
1775732952635757405,1356,1775732952635576139,F2008915,4820.0,4820.0,4820.0,0.008149,-0.011037,0.998422,-0.14913,-0.01567,-0.00245,23.799999237060547,12.100000381469727,103.12999725341797,99736.0
1775732952702880620,1357,1775732952702788473,F2008915,4790.0,4790.0,4790.0,-0.006185,-0.013585,1.004798,0.07747,0.00715,0.08656,23.899999618530273,12.069999694824219,103.16000366210938,99736.0
1775732952702915382,1358,1775732952702811188,F2008915,4890.0,4890.0,4890.0,0.007867,-0.0083,0.994984,-0.0262,0.0253,0.01785,23.700000762939453,12.119999885559082,103.12999725341797,99736.0
1775732952702922531,1359,1775732952702834334,F2008915,4910.0,4910.0,4910.0,-0.000364,-0.017847,1.000952,-0.22764,0.01778,0.0357,23.799999237060547,12.039999961853027,103.12999725341797,99736.0
1775732952778311951,1360,1775732952778248564,F2008915,4790.0,4790.0,4790.0,0.000513,-0.015058,0.998409,0.26586,0.03839,0.00286,23.799999237060547,12.149999618530273,103.0999984741211,99738.0
1775732952778382088,1361,1775732952778268551,F2008915,4800.0,4800.0,4800.0,0.012217,-0.012589,0.992957,-0.09558,-0.01259,-0.03844,23.799999237060547,12.130000114440918,103.16000366210938,99736.0
1775732952778388168,1363,1775732952778296680,F2008915,4840.0,4840.0,4840.0,0.006011,-0.004821,0.99692,0.15195,0.06147,-0.09667,23.700000762939453,12.100000381469727,103.19000244140625,99736.0
1775732952853885269,1364,1775732952853784049,F2008915,4840.0,4840.0,4840.0,0.006381,-0.008632,0.998119,-0.0851,-0.03481,0.008,23.799999237060547,12.119999885559082,103.22000122070312,99736.0
1775732952853937006,1365,1775732952853809467,F2008915,4800.0,4800.0,4800.0,-0.00574,-0.00378,1.003372,0.36185,0.05139,0.01998,23.700000762939453,12.079999923706055,103.18000030517578,99736.0
1775732952853943192,1367,1775732952853845238,F2008915,4840.0,4840.0,4840.0,-0.008675,-0.008127,1.007229,0.04599,-0.00876,-0.01123,23.799999237060547,12.069999694824219,103.18000030517578,99736.0
1775732952921262115,1368,1775732952921174595,F2008915,4910.0,4910.0,4910.0,-0.000821,0.000365,0.998473,0.11602,-0.01434,-0.01064,23.799999237060547,12.109999656677246,103.20999908447266,99736.0
1775732952921273967,1369,1775732952921205572,F2008915,4840.0,4840.0,4840.0,0.009122,-0.003039,0.99384,-0.24069,-0.07833,0.00532,23.700000762939453,12.109999656677246,103.20999908447266,99736.0
1775732952921277218,1370,1775732952921221636,F2008915,4770.0,4770.0,4770.0,-0.00516,-0.002453,0.999671,0.12442,0.05414,0.03801,23.799999237060547,12.039999961853027,103.23999786376953,99736.0
1775732952996713820,1371,1775732952996631263,F2008915,4810.0,4810.0,4810.0,0.010762,0.002151,0.992311,-0.01101,-0.00188,-0.02514,23.799999237060547,11.989999771118164,103.2699966430664,99734.0
1775732952996725686,1372,1775732952996662103,F2008915,4830.0,4830.0,4830.0,-0.001704,-0.007921,1.002663,-0.15376,-0.02102,0.0536,23.799999237060547,12.069999694824219,103.23999786376953,99736.0
1775732952996728476,1374,1775732952996697581,F2008915,4790.0,4790.0,4790.0,0.011863,-0.007631,0.995476,-0.36113,-0.04836,0.04256,23.799999237060547,12.140000343322754,103.30000305175781,99734.0
1775732953072177078,1375,1775732953072102090,F2008915,4790.0,4790.0,4790.0,-0.004036,-0.013041,1.00327,0.09494,0.01146,0.06974,23.799999237060547,12.100000381469727,103.20999908447266,99736.0
1775732953072186252,1376,1775732953072130715,F2008915,4790.0,4790.0,4790.0,0.010433,-0.011339,0.996414,-0.04342,0.08848,0.01122,23.799999237060547,12.050000190734863,103.20999908447266,99736.0
1775732953072188932,1377,1775732953072148182,F2008915,4870.0,4870.0,4870.0,-0.00249,-0.016411,1.002948,-0.16297,-0.01133,0.03328,23.799999237060547,12.029999732971191,103.33999633789062,99734.0
1775732953072264744,1378,1775732953072167400,F2008915,4780.0,4780.0,4780.0,-0.006819,-0.01385,1.002577,0.12549,0.03037,6e-05,23.799999237060547,12.069999694824219,103.33999633789062,99734.0
1775732953139546559,1379,1775732953139481644,F2008915,4730.0,4730.0,4730.0,0.008643,-0.012883,0.99465,-0.16464,-0.03608,-0.03221,23.899999618530273,12.100000381469727,103.30999755859375,99734.0
1775732953139559715,1380,1775732953139511383,F2008915,4790.0,4790.0,4790.0,-0.008281,-0.015132,1.003844,0.10732,-0.03703,0.02205,23.899999618530273,12.100000381469727,103.33999633789062,99734.0
1775732953139564820,1381,1775732953139530952,F2008915,4760.0,4760.0,4760.0,0.006074,-0.007627,0.995384,0.22754,-0.03502,-0.02234,23.700000762939453,12.050000190734863,103.37000274658203,99734.0
1775732953215089852,1382,1775732953214987481,F2008915,4790.0,4790.0,4790.0,0.002574,-0.012692,1.00123,-0.11473,-0.0626,-0.00068,23.799999237060547,11.979999542236328,103.33000183105469,99734.0
1775732953215146228,1383,1775732953215036763,F2008915,4770.0,4770.0,4770.0,-0.0073,-0.01015,1.005224,0.26535,-0.01709,-0.005,23.799999237060547,12.180000305175781,103.2699966430664,99736.0
1775732953215214660,1384,1775732953215082441,F2008915,4750.0,4750.0,4750.0,0.014227,-0.006971,0.994353,-0.01201,-0.05998,-0.04864,23.799999237060547,12.0600004196167,103.36000061035156,99734.0
1775732953215220970,1385,1775732953215141029,F2008915,4810.0,4810.0,4810.0,-0.00162,-0.009968,1.003233,0.14394,-0.04722,0.00993,23.700000762939453,12.140000343322754,103.23999786376953,99736.0
1775732953282384421,1386,1775732953282311206,F2008915,4810.0,4810.0,4810.0,0.000872,-0.001272,0.998829,0.29121,0.02204,-0.03719,23.799999237060547,12.130000114440918,103.18000030517578,99736.0
1775732953282401021,1387,1775732953282340389,F2008915,4830.0,4830.0,4830.0,0.006433,-0.005688,0.997345,-0.11268,-0.09953,-0.03364,23.700000762939453,12.020000457763672,103.18000030517578,99736.0
1775732953282403074,1388,1775732953282357815,F2008915,4830.0,4830.0,4830.0,-0.000755,0.000762,0.997103,0.21445,-0.0239,-0.01661,23.700000762939453,12.09000015258789,103.20999908447266,99736.0
1775732953357893240,1389,1775732953357828690,F2008915,4820.0,4820.0,4820.0,0.009449,-0.004298,0.990716,0.11124,-0.00112,-0.06882,23.799999237060547,12.100000381469727,103.20999908447266,99736.0
1775732953357924858,1390,1775732953357857710,F2008915,4820.0,4820.0,4820.0,-0.002676,-0.006557,1.000099,-0.05208,-0.10556,0.00901,23.799999237060547,12.130000114440918,103.20999908447266,99736.0
1775732953358007900,1391,1775732953357876696,F2008915,4760.0,4760.0,4760.0,0.005502,0.008696,0.995699,0.21115,0.09034,-0.00336,23.799999237060547,12.020000457763672,103.18000030517578,99736.0
1775732953358012555,1392,1775732953357896304,F2008915,4800.0,4800.0,4800.0,0.001357,-0.00745,1.004877,-0.1327,0.03845,0.00378,23.700000762939453,12.079999923706055,103.1500015258789,99736.0
1775732953433373352,1393,1775732953433306703,F2008915,4750.0,4750.0,4750.0,-0.016697,-0.01738,1.013824,-0.11583,-0.04125,0.02942,23.799999237060547,12.020000457763672,103.1500015258789,99736.0
1775732953433389932,1394,1775732953433330762,F2008915,4790.0,4790.0,4790.0,0.011724,-0.000245,0.992818,0.04297,-0.10548,-0.00774,23.799999237060547,12.119999885559082,103.23999786376953,99736.0
1775732953433402386,1396,1775732953433356353,F2008915,4810.0,4810.0,4810.0,-0.005593,-0.020086,1.00086,0.27673,-0.05879,0.01053,23.700000762939453,12.1899995803833,103.1500015258789,99736.0
1775732953500729099,1397,1775732953500654720,F2008915,4850.0,4850.0,4850.0,0.013869,-0.007777,0.989304,0.02042,-0.07746,-0.02573,23.799999237060547,12.09000015258789,103.1500015258789,99736.0
1775732953500740722,1398,1775732953500678923,F2008915,4890.0,4890.0,4890.0,-0.005221,-0.017519,1.001667,0.43156,-0.01456,0.00486,23.700000762939453,12.09000015258789,103.1500015258789,99736.0
1775732953500745895,1399,1775732953500693273,F2008915,4800.0,4800.0,4800.0,0.008675,-0.017308,0.995254,0.31817,-0.0251,-0.06292,23.799999237060547,12.0600004196167,103.18000030517578,99736.0
1775732953576356212,1400,1775732953576235259,F2008915,4810.0,4810.0,4810.0,0.013779,-0.009069,0.993547,0.13823,-0.02154,-0.0382,23.799999237060547,12.039999961853027,103.1500015258789,99736.0
1775732953576359445,1401,1775732953576258575,F2008915,4770.0,4770.0,4770.0,-0.002404,-0.009521,1.003405,0.6451,0.05567,-0.03985,23.700000762939453,12.109999656677246,103.1500015258789,99736.0
1775732953576361285,1403,1775732953576290334,F2008915,4790.0,4790.0,4790.0,0.006434,-0.007889,0.999206,0.45063,0.17557,-0.26704,23.700000762939453,12.100000381469727,103.16000366210938,99736.0
1775732953651880596,1404,1775732953651652010,F2008915,4840.0,4840.0,4840.0,-0.003817,0.018411,1.003298,0.46528,0.24515,-0.20348,23.799999237060547,12.050000190734863,103.23999786376953,99736.0
1775732953651884612,1405,1775732953651676375,F2008915,4840.0,4840.0,4840.0,0.003581,0.005576,1.001528,0.05561,0.01768,-2e-05,23.799999237060547,12.039999961853027,103.23999786376953,99736.0
1775732953651886712,1407,1775732953651702422,F2008915,4840.0,4840.0,4840.0,0.003214,0.014965,0.995817,0.04878,0.0796,0.00451,23.799999237060547,12.0600004196167,103.2699966430664,99734.0
1775732953719103095,1408,1775732953719050942,F2008915,4880.0,4880.0,4880.0,-0.008628,-0.00549,1.003417,-0.53055,-0.04617,0.0501,23.799999237060547,12.020000457763672,103.30000305175781,99734.0
1775732953719112810,1409,1775732953719069281,F2008915,4790.0,4790.0,4790.0,0.00227,0.007789,0.993078,-0.08266,0.0133,0.01814,23.700000762939453,12.020000457763672,103.20999908447266,99736.0
1775732953719118059,1410,1775732953719085169,F2008915,4820.0,4820.0,4820.0,0.008995,4.1e-05,0.991718,-0.44968,-0.00748,-0.03239,23.799999237060547,12.130000114440918,103.23999786376953,99736.0
1775732953794586212,1411,1775732953794515058,F2008915,4770.0,4770.0,4770.0,-0.01284,-0.000457,1.00383,-0.11003,0.00776,0.06198,23.799999237060547,12.109999656677246,103.16000366210938,99736.0
1775732953794594739,1412,1775732953794537604,F2008915,4780.0,4780.0,4780.0,0.009322,-0.001595,0.993681,-0.43633,0.04361,0.08118,23.899999618530273,12.119999885559082,103.18000030517578,99736.0
1775732953794595947,1414,1775732953794564693,F2008915,4740.0,4740.0,4740.0,-0.000769,-0.020915,1.001662,-0.15437,0.02051,0.06521,23.799999237060547,12.149999618530273,103.12000274658203,99736.0
1775732953862196263,1415,1775732953861920953,F2008915,4800.0,4800.0,4800.0,0.016866,-0.025282,0.992607,-0.33349,0.01525,0.02325,23.799999237060547,12.15999984741211,103.12000274658203,99736.0
1775732953862201228,1416,1775732953861943724,F2008915,4850.0,4850.0,4850.0,-0.006037,-0.029083,1.00587,-0.22688,0.0151,0.00145,23.700000762939453,12.069999694824219,103.08999633789062,99738.0
1775732953862210957,1417,1775732953861958533,F2008915,4880.0,4880.0,4880.0,0.004719,-0.017814,0.998978,0.10043,0.05932,-0.06397,23.700000762939453,12.119999885559082,103.1500015258789,99736.0
1775732953937427071,1418,1775732953937371715,F2008915,4900.0,4900.0,4900.0,0.006719,-0.023474,1.001876,-0.19603,-0.02933,-0.02629,23.700000762939453,11.970000267028809,103.1500015258789,99736.0
1775732953937445476,1419,1775732953937391976,F2008915,4780.0,4780.0,4780.0,-0.006762,-0.013198,1.005128,0.32005,0.08229,-0.04206,23.700000762939453,12.130000114440918,103.18000030517578,99736.0
1775732953937446687,1420,1775732953937404131,F2008915,4780.0,4780.0,4780.0,0.009873,-0.006546,0.995231,-0.02353,0.02894,-0.05862,23.799999237060547,11.989999771118164,103.18000030517578,99736.0
1775732953937469317,1421,1775732953937415091,F2008915,4800.0,4800.0,4800.0,-0.002409,-0.009397,1.003303,0.17284,-0.02122,0.01553,23.700000762939453,12.0,103.18000030517578,99736.0
1775732954012979621,1422,1775732954012855307,F2008915,4800.0,4800.0,4800.0,0.00031,0.000453,0.996632,0.40654,0.04951,-0.05062,23.799999237060547,12.109999656677246,103.23999786376953,99736.0
1775732954012989898,1425,1775732954012902109,F2008915,4860.0,4860.0,4860.0,0.009298,0.007238,0.991749,0.07162,0.02486,-0.03652,23.799999237060547,12.020000457763672,103.1500015258789,99736.0
1775732954080306161,1426,1775732954080240408,F2008915,4820.0,4820.0,4820.0,-0.003843,-0.00153,1.002775,-0.11744,-0.0496,0.0478,23.799999237060547,12.100000381469727,103.18000030517578,99736.0
1775732954080325975,1427,1775732954080263027,F2008915,4790.0,4790.0,4790.0,-0.001566,0.003596,0.999871,0.14538,0.00359,0.03232,23.799999237060547,12.039999961853027,103.20999908447266,99736.0
1775732954080333941,1428,1775732954080275836,F2008915,4840.0,4840.0,4840.0,0.009944,-0.001935,0.99677,-0.30739,-0.1072,0.04789,23.799999237060547,12.09000015258789,103.18000030517578,99736.0
1775732954155857079,1429,1775732954155776835,F2008915,4730.0,4730.0,4730.0,-0.006986,-0.010955,1.004373,-0.0589,-0.04989,0.11685,23.899999618530273,12.050000190734863,103.18000030517578,99736.0
1775732954155864170,1430,1775732954155801605,F2008915,4750.0,4750.0,4750.0,0.009625,-0.00751,0.994181,0.02418,0.05294,0.0512,23.799999237060547,12.029999732971191,103.18000030517578,99736.0
1775732954155867784,1431,1775732954155816808,F2008915,4810.0,4810.0,4810.0,0.00389,-0.016502,0.999229,-0.28065,-0.04475,0.01124,23.799999237060547,12.130000114440918,103.12000274658203,99736.0
1775732954155942319,1432,1775732954155830261,F2008915,4720.0,4720.0,4720.0,-0.005306,-0.013833,1.002888,0.22323,0.04716,-0.01112,23.799999237060547,12.079999923706055,103.08999633789062,99738.0
1775732954223324742,1433,1775732954223138060,F2008915,4750.0,4750.0,4750.0,0.012013,-0.012591,0.995057,-0.25707,-0.02529,-0.06371,23.899999618530273,12.029999732971191,103.18000030517578,99736.0
1775732954223358078,1435,1775732954223193290,F2008915,4760.0,4760.0,4760.0,0.004518,-0.009638,0.998174,0.11312,0.04063,-0.05547,23.799999237060547,12.15999984741211,103.1500015258789,99736.0
1775732954298690785,1436,1775732954298577712,F2008915,4790.0,4790.0,4790.0,0.007159,-0.0145,0.996742,-0.02601,-0.02696,0.01009,23.799999237060547,12.020000457763672,103.1500015258789,99736.0
1775732954298693838,1439,1775732954298620283,F2008915,4870.0,4870.0,4870.0,0.000165,-0.010643,1.000672,0.07827,-0.02486,-0.02539,23.799999237060547,12.069999694824219,103.23999786376953,99736.0
1775732954374152271,1440,1775732954374099021,F2008915,4820.0,4820.0,4820.0,-0.00093,-0.000785,1.000475,0.39333,0.04128,0.00446,23.700000762939453,12.100000381469727,103.2699966430664,99734.0
1775732954374179371,1441,1775732954374119084,F2008915,4790.0,4790.0,4790.0,0.008887,-0.003821,0.998518,-0.06738,-0.01431,-0.02735,23.799999237060547,12.010000228881836,103.33000183105469,99734.0
1775732954374183085,1443,1775732954374141523,F2008915,4790.0,4790.0,4790.0,0.006441,0.001454,0.995533,0.08974,0.01802,-0.05198,23.799999237060547,12.039999961853027,103.23999786376953,99736.0
1775732954441556659,1444,1775732954441451521,F2008915,4790.0,4790.0,4790.0,0.002852,-0.004629,0.998267,-0.15107,-0.06974,0.02796,23.700000762939453,12.09000015258789,103.23999786376953,99736.0
1775732954441575934,1445,1775732954441475318,F2008915,4750.0,4750.0,4750.0,-0.004418,-0.000295,1.000333,0.18577,0.05403,0.01795,23.799999237060547,12.050000190734863,103.23999786376953,99736.0
1775732954441578713,1446,1775732954441490752,F2008915,4810.0,4810.0,4810.0,0.009743,0.000887,0.993174,-0.18163,-0.02156,-0.01036,23.799999237060547,12.079999923706055,103.2699966430664,99736.0
1775732954517009344,1447,1775732954516931696,F2008915,4850.0,4850.0,4850.0,-0.007351,-0.007111,1.003669,-0.02082,-0.00976,0.05859,23.899999618530273,12.050000190734863,103.33000183105469,99734.0
1775732954517028509,1448,1775732954516954690,F2008915,4840.0,4840.0,4840.0,0.003933,0.00153,0.996087,-0.01274,0.01779,0.03034,23.799999237060547,12.100000381469727,103.37999725341797,99734.0
1775732954517030875,1450,1775732954516980572,F2008915,4730.0,4730.0,4730.0,-0.004573,-0.009344,1.001733,0.07422,-0.01115,0.05433,23.700000762939453,12.079999923706055,103.44999694824219,99732.0
1775732954592526689,1451,1775732954592446634,F2008915,4760.0,4760.0,4760.0,0.014225,-0.007956,0.993237,-0.16687,-0.01355,-0.00094,23.899999618530273,12.069999694824219,103.4800033569336,99732.0
1775732954592545570,1452,1775732954592472093,F2008915,4790.0,4790.0,4790.0,-0.000946,-0.012982,1.002804,-0.10801,-0.04527,0.00878,23.700000762939453,12.109999656677246,103.41999816894531,99734.0
1775732954592547808,1454,1775732954592497889,F2008915,4750.0,4750.0,4750.0,0.012599,-0.013607,0.996033,-0.22357,-0.02773,0.00811,23.799999237060547,11.989999771118164,103.4800033569336,99732.0
1775732954659933345,1455,1775732954659823073,F2008915,4760.0,4760.0,4760.0,-0.007443,-0.013485,1.005075,0.2206,0.04511,0.02519,23.799999237060547,12.079999923706055,103.47000122070312,99732.0
1775732954659936508,1456,1775732954659841640,F2008915,4800.0,4800.0,4800.0,0.007389,-0.007537,0.996116,0.06548,0.00497,-0.02252,23.799999237060547,12.130000114440918,103.5,99732.0
1775732954659941108,1457,1775732954659857697,F2008915,4880.0,4880.0,4880.0,-0.002468,-0.017112,1.0036,-0.04792,-0.03953,-0.0102,23.799999237060547,12.149999618530273,103.52999877929688,99732.0
1775732954735362230,1458,1775732954735307106,F2008915,4910.0,4910.0,4910.0,-0.007605,-0.014786,1.004846,0.25713,-0.03415,0.0271,23.799999237060547,12.149999618530273,103.52999877929688,99732.0
1775732954735381624,1459,1775732954735328798,F2008915,4850.0,4850.0,4850.0,0.017594,0.006398,0.986876,-0.17033,-0.03558,-0.05533,23.899999618530273,12.029999732971191,103.5,99732.0
1775732954735382742,1460,1775732954735341166,F2008915,4820.0,4820.0,4820.0,-0.009075,-0.017591,1.006075,0.29117,0.03111,-0.04978,23.700000762939453,12.149999618530273,103.47000122070312,99732.0
1775732954735387935,1461,1775732954735352087,F2008915,4810.0,4810.0,4810.0,-0.000845,-0.004374,0.999743,-0.01823,-0.04948,-0.03784,23.700000762939453,12.069999694824219,103.31999969482422,99734.0
1775732954802844787,1462,1775732954802779452,F2008915,4810.0,4810.0,4810.0,0.008724,0.007261,0.994749,-0.02105,-0.14429,-0.04334,23.700000762939453,12.100000381469727,103.41000366210938,99734.0
1775732954802853388,1463,1775732954802813202,F2008915,4730.0,4730.0,4730.0,-0.001453,-0.008656,1.001617,0.25232,0.03058,0.00011,23.700000762939453,12.100000381469727,103.37999725341797,99734.0
1775732954802857518,1464,1775732954802825373,F2008915,4760.0,4760.0,4760.0,0.013221,-0.010846,0.99346,-0.14719,-0.00703,-0.00506,23.899999618530273,12.100000381469727,103.36000061035156,99734.0
1775732954878244012,1465,1775732954878179421,F2008915,4810.0,4810.0,4810.0,-0.00188,-0.000244,1.000071,-0.0175,0.00643,0.09703,23.899999618530273,12.09000015258789,103.37999725341797,99734.0
1775732954878264862,1466,1775732954878201246,F2008915,4810.0,4810.0,4810.0,0.007321,-0.003593,0.996132,0.36648,0.09241,0.01526,23.799999237060547,12.069999694824219,103.41000366210938,99734.0
1775732954878265928,1467,1775732954878217664,F2008915,4890.0,4890.0,4890.0,0.008329,-0.011259,0.998546,-0.21257,0.00805,-0.04957,23.799999237060547,12.09000015258789,103.41000366210938,99734.0
1775732954878349239,1468,1775732954878228978,F2008915,4850.0,4850.0,4850.0,-0.01098,-0.009721,1.006784,0.04308,0.00956,-0.00171,23.700000762939453,12.050000190734863,103.31999969482422,99734.0
1775732954953753776,1469,1775732954953669217,F2008915,4800.0,4800.0,4800.0,0.008417,0.00083,0.994495,-0.06708,-0.03972,-0.02956,23.799999237060547,12.020000457763672,103.44000244140625,99732.0
1775732954953765398,1470,1775732954953697317,F2008915,4850.0,4850.0,4850.0,0.002326,-0.012584,1.001519,-0.031,0.00915,0.0322,23.799999237060547,12.100000381469727,103.3499984741211,99734.0
1775732954953770491,1472,1775732954953725144,F2008915,4750.0,4750.0,4750.0,0.004545,-0.006644,0.998414,-0.28917,-0.08877,0.00507,23.700000762939453,12.130000114440918,103.37999725341797,99734.0
1775732955021075533,1473,1775732955021002196,F2008915,4740.0,4740.0,4740.0,-0.008095,-0.006297,1.003198,0.08382,-0.01461,0.04687,23.799999237060547,12.029999732971191,103.37999725341797,99734.0
1775732955021104821,1474,1775732955021029192,F2008915,4750.0,4750.0,4750.0,0.007823,-0.004871,0.992426,0.09879,-0.03301,0.00245,23.899999618530273,12.079999923706055,103.31999969482422,99734.0
1775732955021112115,1475,1775732955021043071,F2008915,4810.0,4810.0,4810.0,0.008426,-0.008823,0.993025,-0.30705,-0.05342,0.02247,23.899999618530273,12.109999656677246,103.31999969482422,99734.0
1775732955096623514,1476,1775732955096558609,F2008915,4740.0,4740.0,4740.0,-0.005555,-0.002598,1.001133,0.22416,0.04307,-0.03197,23.799999237060547,12.109999656677246,103.37999725341797,99734.0
1775732955096638573,1477,1775732955096581792,F2008915,4760.0,4760.0,4760.0,0.007704,-0.008514,0.999794,-0.13371,-0.0618,-0.02627,23.799999237060547,12.079999923706055,103.37999725341797,99734.0
1775732955096659967,1478,1775732955096594786,F2008915,4820.0,4820.0,4820.0,-0.00121,-0.007757,1.004193,-0.14479,-0.0585,0.02114,23.799999237060547,12.050000190734863,103.37999725341797,99734.0
1775732955096661657,1479,1775732955096605778,F2008915,4770.0,4770.0,4770.0,0.008743,-0.004866,0.995204,0.07532,0.04484,-0.02425,23.700000762939453,12.010000228881836,103.37999725341797,99734.0
1775732955172166198,1480,1775732955172029866,F2008915,4760.0,4760.0,4760.0,0.006939,-0.015145,0.999231,-0.25851,-0.00018,0.0195,23.799999237060547,12.020000457763672,103.33000183105469,99734.0
1775732955172181697,1481,1775732955172049710,F2008915,4710.0,4710.0,4710.0,-0.003781,-0.010868,1.003638,0.26287,0.02783,0.01084,23.799999237060547,12.109999656677246,103.36000061035156,99734.0
1775732955172185993,1482,1775732955172061347,F2008915,4760.0,4760.0,4760.0,0.012991,-0.007286,0.993678,0.02597,0.103,-0.03987,23.799999237060547,12.079999923706055,103.41000366210938,99734.0
1775732955172188719,1483,1775732955172071937,F2008915,4780.0,4780.0,4780.0,-0.007972,-0.015931,1.005765,-0.06433,0.0006,-0.00396,23.799999237060547,12.050000190734863,103.41000366210938,99734.0
1775732955239438950,1484,1775732955239374889,F2008915,4740.0,4740.0,4740.0,-0.000693,-0.005239,0.998739,0.17594,-0.00662,-0.00632,23.799999237060547,12.0600004196167,103.33000183105469,99734.0
1775732955239450306,1485,1775732955239408280,F2008915,4780.0,4780.0,4780.0,0.011519,-0.007387,0.994584,-0.13495,-0.03615,-0.01984,23.899999618530273,11.970000267028809,103.33000183105469,99734.0
1775732955239454063,1486,1775732955239420817,F2008915,4740.0,4740.0,4740.0,-0.01123,-0.006581,1.005825,0.25459,0.03342,-0.01518,23.799999237060547,12.069999694824219,103.29000091552734,99734.0
1775732955314909543,1487,1775732955314854599,F2008915,4840.0,4840.0,4840.0,0.004507,-0.005002,0.99795,0.02379,0.00455,-0.00489,23.799999237060547,12.079999923706055,103.36000061035156,99734.0
1775732955314925523,1488,1775732955314879641,F2008915,4970.0,4970.0,4970.0,-3.1e-05,-0.008421,1.001413,-0.19751,-0.08246,0.00742,23.799999237060547,12.109999656677246,103.29000091552734,99734.0
1775732955314931646,1489,1775732955314892003,F2008915,4810.0,4810.0,4810.0,-0.00163,-0.004133,0.999834,0.32215,-0.03289,-0.00412,23.899999618530273,12.079999923706055,103.26000213623047,99736.0
1775732955314933397,1490,1775732955314908837,F2008915,4780.0,4780.0,4780.0,0.012455,-0.003723,0.993586,-0.06254,-0.08856,0.01009,23.799999237060547,12.069999694824219,103.23999786376953,99736.0
1775732955382297047,1491,1775732955382239084,F2008915,4790.0,4790.0,4790.0,-0.004663,-0.008382,1.003482,0.07026,-0.03691,0.07091,23.799999237060547,12.0,103.18000030517578,99736.0
1775732955382301285,1492,1775732955382269037,F2008915,4790.0,4790.0,4790.0,0.009032,-0.000973,0.995187,0.00164,0.00384,-0.01935,23.799999237060547,12.069999694824219,103.1500015258789,99736.0
1775732955382316734,1493,1775732955382281602,F2008915,4790.0,4790.0,4790.0,0.006329,-0.007905,0.99884,-0.11091,-0.05039,0.00983,23.700000762939453,12.039999961853027,103.1500015258789,99736.0
1775732955457836597,1494,1775732955457771757,F2008915,4720.0,4720.0,4720.0,-0.003415,-0.006105,0.999866,0.18047,0.07164,0.03164,23.799999237060547,12.0600004196167,103.1500015258789,99736.0
1775732955457862039,1495,1775732955457794144,F2008915,4760.0,4760.0,4760.0,0.012451,-0.007108,0.993937,-0.24309,0.02268,-0.04552,23.700000762939453,12.0600004196167,103.20999908447266,99736.0
1775732955457865840,1496,1775732955457805961,F2008915,4790.0,4790.0,4790.0,-0.004574,-0.01166,1.005085,-0.07139,-0.00581,0.003,23.799999237060547,12.130000114440918,103.20999908447266,99736.0
1775732955457868510,1497,1775732955457816994,F2008915,4830.0,4830.0,4830.0,-0.000185,-0.003696,1.000672,0.20627,0.02121,-0.02517,23.799999237060547,12.069999694824219,103.20999908447266,99736.0
1775732955533306297,1498,1775732955533252427,F2008915,4880.0,4880.0,4880.0,0.004949,-0.010166,0.998507,-0.27194,-0.05735,0.00064,23.799999237060547,12.15999984741211,103.20999908447266,99736.0
1775732955533320338,1499,1775732955533285802,F2008915,4810.0,4810.0,4810.0,-0.006596,-0.008275,1.001387,0.10871,0.02959,0.04101,23.700000762939453,12.09000015258789,103.20999908447266,99736.0
1775732955533334021,1500,1775732955533304277,F2008915,4840.0,4840.0,4840.0,0.010153,-0.004969,0.993517,-0.05839,0.00482,-0.04503,23.799999237060547,12.15999984741211,103.13999938964844,99736.0
1775732955533417357,1501,1775732955533320993,F2008915,4850.0,4850.0,4850.0,-0.00462,-0.011547,1.002134,-0.01625,-0.07795,0.04512,23.799999237060547,12.15999984741211,103.13999938964844,99736.0
1775732955600652879,1502,1775732955600584030,F2008915,4810.0,4810.0,4810.0,-0.0007,-0.005507,0.999959,0.19125,-0.02347,0.01953,23.799999237060547,12.0600004196167,103.08000183105469,99738.0
1775732955600664423,1503,1775732955600621214,F2008915,4770.0,4770.0,4770.0,0.011839,-0.008624,0.995171,-0.24092,-0.09558,-0.03494,23.799999237060547,12.020000457763672,103.20999908447266,99736.0
1775732955600667174,1504,1775732955600633606,F2008915,4740.0,4740.0,4740.0,-0.00557,-0.008869,1.003926,0.12883,-0.04743,0.01559,23.799999237060547,12.039999961853027,103.11000061035156,99736.0
1775732955676120684,1505,1775732955676061594,F2008915,4810.0,4810.0,4810.0,0.009385,-0.002673,0.995128,0.08256,0.02385,-0.02302,23.700000762939453,12.050000190734863,103.12000274658203,99736.0
1775732955676130301,1506,1775732955676082169,F2008915,4810.0,4810.0,4810.0,0.002364,-0.008252,1.001451,-0.13979,-0.00835,-0.01032,23.899999618530273,12.100000381469727,103.05000305175781,99738.0
1775732955676131351,1507,1775732955676094145,F2008915,4820.0,4820.0,4820.0,-0.004852,-0.003687,1.00237,0.13876,0.06796,-0.02173,23.799999237060547,12.149999618530273,103.1500015258789,99736.0
1775732955676141954,1508,1775732955676110619,F2008915,4920.0,4920.0,4920.0,0.010295,-0.005425,0.993915,-0.21427,-0.04836,-0.00633,23.799999237060547,12.109999656677246,103.18000030517578,99736.0
1775732955751646481,1509,1775732955751590732,F2008915,4840.0,4840.0,4840.0,-0.005421,-0.010375,1.00106,0.10228,-0.02627,0.00875,23.700000762939453,11.989999771118164,103.18000030517578,99736.0
1775732955751657686,1510,1775732955751613709,F2008915,4820.0,4820.0,4820.0,0.00923,-0.002949,0.992431,0.09343,0.03304,-0.00253,23.799999237060547,12.100000381469727,103.18000030517578,99736.0
1775732955751658748,1511,1775732955751625735,F2008915,4830.0,4830.0,4830.0,0.005688,-0.010251,0.997455,-0.20057,-0.03811,-0.02155,23.700000762939453,12.079999923706055,103.20999908447266,99736.0
1775732955751756728,1512,1775732955751638207,F2008915,4740.0,4740.0,4740.0,-0.007211,-0.007226,1.004725,0.21236,0.07991,0.0205,23.799999237060547,12.130000114440918,103.13999938964844,99736.0
1775732955819199569,1513,1775732955819027721,F2008915,4770.0,4770.0,4770.0,0.01252,-0.003905,0.995331,-0.11571,-0.02773,-0.05838,23.799999237060547,12.039999961853027,103.20999908447266,99736.0
1775732955819206158,1514,1775732955819080453,F2008915,4820.0,4820.0,4820.0,-0.002591,-0.010589,1.003828,-0.02411,-0.0075,0.0049,23.799999237060547,12.020000457763672,103.26000213623047,99736.0
1775732955819227713,1515,1775732955819109519,F2008915,4790.0,4790.0,4790.0,0.00402,-0.003752,0.997865,0.13155,0.07105,-0.04142,23.899999618530273,12.15999984741211,103.20999908447266,99736.0
1775732955894562940,1516,1775732955894486660,F2008915,4790.0,4790.0,4790.0,0.007012,-0.007982,0.997678,-0.12503,-0.02037,-0.02857,23.799999237060547,12.010000228881836,103.20999908447266,99736.0
1775732955894579017,1517,1775732955894510626,F2008915,4810.0,4810.0,4810.0,-0.010501,-0.006895,1.006554,0.18312,0.03762,0.03893,23.799999237060547,12.069999694824219,103.20999908447266,99736.0
1775732955894655734,1518,1775732955894531789,F2008915,4900.0,4900.0,4900.0,0.007916,-0.003683,0.994783,-0.07895,-0.04907,-0.0166,23.700000762939453,12.170000076293945,103.20999908447266,99736.0
1775732955894657735,1519,1775732955894543084,F2008915,4890.0,4890.0,4890.0,-0.001337,-0.010729,1.000124,-0.17076,-0.03933,0.02591,23.899999618530273,12.09000015258789,103.13999938964844,99736.0
1775732955961832288,1520,1775732955961787319,F2008915,4860.0,4860.0,4860.0,-0.001013,-0.005401,0.997642,0.28098,-0.01658,0.01176,23.799999237060547,12.15999984741211,103.16999816894531,99736.0
1775732955961845446,1521,1775732955961805700,F2008915,4830.0,4830.0,4830.0,0.010378,-0.007943,0.994691,-0.15747,-0.03714,-0.02865,23.799999237060547,12.079999923706055,103.19999694824219,99736.0
1775732955961847613,1522,1775732955961816855,F2008915,4780.0,4780.0,4780.0,-0.005793,-0.010894,1.003482,0.1907,0.0141,0.00522,23.600000381469727,12.0,103.16999816894531,99736.0
1775732956037423369,1523,1775732956037297095,F2008915,4820.0,4820.0,4820.0,0.010035,-0.005139,0.994496,-0.03116,0.01275,-0.01532,23.899999618530273,12.029999732971191,103.19999694824219,99736.0
1775732956037429126,1524,1775732956037319202,F2008915,4800.0,4800.0,4800.0,0.005378,-0.011,0.999252,-0.15041,-0.07457,0.00804,23.700000762939453,12.09000015258789,103.26000213623047,99736.0
1775732956037438089,1525,1775732956037338990,F2008915,4740.0,4740.0,4740.0,0.000699,-0.006021,0.998827,0.23926,0.07071,0.01328,23.799999237060547,11.970000267028809,103.23999786376953,99736.0
1775732956037441515,1526,1775732956037356118,F2008915,4770.0,4770.0,4770.0,0.012199,-0.006019,0.994799,-0.08609,0.05386,-0.00202,23.799999237060547,12.109999656677246,103.23999786376953,99736.0
1775732956112865269,1527,1775732956112789511,F2008915,4800.0,4800.0,4800.0,-0.008904,-0.011712,1.007449,0.0285,0.05266,0.05561,23.799999237060547,11.979999542236328,103.16999816894531,99736.0
1775732956112870814,1528,1775732956112814838,F2008915,4830.0,4830.0,4830.0,0.001383,-0.002904,0.999859,0.11868,0.05383,-0.00598,23.799999237060547,12.0600004196167,103.23999786376953,99736.0
1775732956112874611,1529,1775732956112826555,F2008915,4820.0,4820.0,4820.0,0.004399,-0.010879,0.998078,-0.18136,-0.05006,-0.0174,23.799999237060547,11.979999542236328,103.19999694824219,99736.0
1775732956112892465,1530,1775732956112841226,F2008915,4740.0,4740.0,4740.0,-0.007325,-0.008957,1.002283,0.22759,-0.00205,0.00023,23.799999237060547,12.109999656677246,103.26000213623047,99736.0
1775732956180212837,1531,1775732956180161865,F2008915,4770.0,4770.0,4770.0,0.006951,-0.003596,0.995119,-0.04879,-0.01594,-0.03511,23.799999237060547,12.100000381469727,103.31999969482422,99734.0
1775732956180220508,1532,1775732956180180456,F2008915,4820.0,4820.0,4820.0,-0.006223,-0.010794,1.004638,0.03038,-0.04718,0.02398,23.899999618530273,12.09000015258789,103.31999969482422,99734.0
1775732956180222704,1533,1775732956180196446,F2008915,4770.0,4770.0,4770.0,0.000653,-0.004927,0.998898,0.24742,-0.02009,-0.0195,23.799999237060547,12.09000015258789,103.29000091552734,99734.0
1775732956255737061,1534,1775732956255653127,F2008915,4770.0,4770.0,4770.0,0.010202,-0.007251,0.994743,-0.18612,-0.09091,0.0198,23.899999618530273,12.039999961853027,103.26000213623047,99736.0
1775732956255745904,1535,1775732956255679872,F2008915,4760.0,4760.0,4760.0,-0.003597,-0.008143,1.002391,0.18146,-0.01908,0.02127,23.799999237060547,12.0,103.26000213623047,99736.0
1775732956255754485,1537,1775732956255706921,F2008915,4850.0,4850.0,4850.0,0.000655,-0.010866,1.002256,-0.06792,-0.04191,-0.01689,23.799999237060547,12.050000190734863,103.29000091552734,99734.0
1775732956323177935,1538,1775732956323062407,F2008915,4870.0,4870.0,4870.0,-0.000881,-0.003022,0.999584,0.21644,0.03637,-0.04531,23.899999618530273,12.079999923706055,103.31999969482422,99734.0
1775732956323183881,1539,1775732956323088552,F2008915,4810.0,4810.0,4810.0,0.013705,-0.003365,0.992269,-0.15623,-0.00901,-0.04461,23.799999237060547,12.15999984741211,103.31999969482422,99734.0
1775732956323194935,1540,1775732956323103050,F2008915,4820.0,4820.0,4820.0,-0.003514,-0.007021,1.000292,0.17976,0.04042,0.00628,23.799999237060547,12.029999732971191,103.19999694824219,99736.0
1775732956398658049,1541,1775732956398513803,F2008915,4860.0,4860.0,4860.0,0.006611,-0.001574,0.994547,0.17614,0.05226,-0.00641,23.899999618530273,12.109999656677246,103.2300033569336,99736.0
1775732956398672779,1542,1775732956398537058,F2008915,4860.0,4860.0,4860.0,0.000815,-0.009827,1.000384,-0.12361,-0.03735,0.0281,23.899999618530273,12.029999732971191,103.31999969482422,99734.0
1775732956398684599,1544,1775732956398564031,F2008915,4760.0,4760.0,4760.0,0.012178,-0.005314,0.993164,-0.11346,0.01808,-0.04228,23.799999237060547,12.130000114440918,103.2300033569336,99736.0
1775732956474121603,1545,1775732956474053034,F2008915,4790.0,4790.0,4790.0,-0.005618,-0.007564,1.003731,0.08131,0.02109,0.02616,23.799999237060547,11.979999542236328,103.29000091552734,99734.0
1775732956474126189,1546,1775732956474074815,F2008915,4800.0,4800.0,4800.0,0.000807,-0.001837,1.000575,0.17792,0.06155,-0.0155,23.799999237060547,12.0600004196167,103.2300033569336,99736.0
1775732956474130784,1547,1775732956474086309,F2008915,4840.0,4840.0,4840.0,0.001784,-0.005499,1.001355,-0.2656,-0.07456,0.0125,23.700000762939453,12.119999885559082,103.16999816894531,99736.0
1775732956474149468,1548,1775732956474099752,F2008915,4830.0,4830.0,4830.0,-0.008073,-0.004501,1.004206,0.1333,0.00332,0.01068,23.899999618530273,12.050000190734863,103.19999694824219,99736.0
1775732956541464378,1549,1775732956541375488,F2008915,4840.0,4840.0,4840.0,0.014605,-0.001699,0.99142,-0.17226,-0.02271,-0.02853,23.700000762939453,12.050000190734863,103.19999694824219,99736.0
1775732956541470412,1550,1775732956541399855,F2008915,4870.0,4870.0,4870.0,5.5e-05,-0.008113,1.000528,-0.08267,0.01366,0.05713,23.700000762939453,12.0600004196167,103.26000213623047,99736.0
1775732956541477078,1551,1775732956541416405,F2008915,4810.0,4810.0,4810.0,0.002923,-0.001756,0.997374,0.11658,0.07836,0.04702,23.799999237060547,12.119999885559082,103.29000091552734,99734.0
1775732956616940281,1552,1775732956616858406,F2008915,4790.0,4790.0,4790.0,0.008823,-0.008265,0.997682,-0.1905,-0.04889,0.04418,23.799999237060547,12.010000228881836,103.31999969482422,99734.0
1775732956616987512,1553,1775732956616883709,F2008915,4720.0,4720.0,4720.0,-0.006979,-0.010439,1.003257,0.03971,0.01466,0.02886,23.799999237060547,12.100000381469727,103.19999694824219,99736.0
1775732956616990385,1555,1775732956616907204,F2008915,4820.0,4820.0,4820.0,0.001169,-0.012317,0.999885,-0.0771,0.0382,0.02324,23.700000762939453,12.100000381469727,103.31999969482422,99734.0
1775732956692429352,1556,1775732956692372534,F2008915,4760.0,4760.0,4760.0,-0.003553,-0.008128,1.002134,0.24362,0.06448,-0.03414,23.799999237060547,12.079999923706055,103.3499984741211,99734.0
1775732956692437765,1557,1775732956692394444,F2008915,4810.0,4810.0,4810.0,0.006468,-0.006998,0.998658,-0.19559,-0.06562,-0.04824,23.799999237060547,12.149999618530273,103.31999969482422,99734.0
1775732956692460551,1558,1775732956692410803,F2008915,4840.0,4840.0,4840.0,-0.010699,-0.010232,1.0083,0.03542,-0.00772,0.04308,23.799999237060547,12.09000015258789,103.31999969482422,99734.0
1775732956692469532,1559,1775732956692433366,F2008915,4810.0,4810.0,4810.0,0.008092,-0.00129,0.995078,-0.00029,0.00658,0.00437,23.700000762939453,12.0600004196167,103.3499984741211,99734.0
1775732956759827723,1560,1775732956759768863,F2008915,4870.0,4870.0,4870.0,0.003309,-0.009518,0.999344,-0.17855,-0.05095,0.03198,23.799999237060547,12.149999618530273,103.3499984741211,99734.0
1775732956759835095,1561,1775732956759801266,F2008915,4830.0,4830.0,4830.0,-0.004955,-0.003814,1.002757,0.2231,0.05159,0.04867,23.799999237060547,12.109999656677246,103.47000122070312,99732.0
1775732956759858103,1562,1775732956759825851,F2008915,4820.0,4820.0,4820.0,0.010719,-0.001364,0.995522,-0.21948,-0.03081,-0.00718,23.799999237060547,12.140000343322754,103.41000366210938,99734.0
1775732956835344488,1563,1775732956835253788,F2008915,4830.0,4830.0,4830.0,-0.005469,-0.007028,1.005006,-0.06048,-0.03247,0.0222,23.899999618530273,12.109999656677246,103.41000366210938,99734.0
1775732956835353221,1564,1775732956835289660,F2008915,4820.0,4820.0,4820.0,0.008193,-0.00091,0.994265,0.01544,0.03605,-0.01321,23.799999237060547,12.100000381469727,103.3499984741211,99734.0
1775732956835361573,1565,1775732956835312012,F2008915,4810.0,4810.0,4810.0,0.009922,-0.007362,0.994864,-0.26813,-0.01289,0.02791,23.700000762939453,12.050000190734863,103.37999725341797,99734.0
1775732956835368105,1566,1775732956835338943,F2008915,4750.0,4750.0,4750.0,-0.004654,-0.006874,1.001329,0.08451,0.06358,0.04267,23.799999237060547,12.039999961853027,103.3499984741211,99734.0
1775732956902661929,1567,1775732956902601357,F2008915,4830.0,4830.0,4830.0,0.010854,-0.004555,0.9935,-0.11731,0.02081,-0.00021,23.700000762939453,12.100000381469727,103.31999969482422,99734.0
1775732956902668780,1568,1775732956902642740,F2008915,4860.0,4860.0,4860.0,-0.00304,-0.010139,1.001351,-0.18983,-0.00044,0.02372,23.700000762939453,12.149999618530273,103.26000213623047,99736.0
1775732956902709138,1569,1775732956902672858,F2008915,4820.0,4820.0,4820.0,7.4e-05,-0.003948,0.997466,0.04961,0.07709,-0.02526,23.799999237060547,12.170000076293945,103.31999969482422,99734.0
1775732956978153916,1570,1775732956978105070,F2008915,4860.0,4860.0,4860.0,0.007783,-0.006792,0.99643,-0.27235,0.00563,-0.0282,23.799999237060547,12.079999923706055,103.26000213623047,99736.0
1775732956978281665,1571,1775732956978127483,F2008915,4770.0,4770.0,4770.0,-0.009728,-0.008067,1.005506,0.11036,0.03522,0.06122,23.700000762939453,12.100000381469727,103.26000213623047,99736.0
1775732956978283592,1572,1775732956978139470,F2008915,4790.0,4790.0,4790.0,0.005639,-0.005526,0.997468,-0.14433,-0.0148,-0.03308,23.799999237060547,12.079999923706055,103.2300033569336,99736.0
1775732956978289429,1573,1775732956978155356,F2008915,4840.0,4840.0,4840.0,-0.000411,-0.012749,1.002421,-0.22723,-0.07842,0.02038,23.799999237060547,12.100000381469727,103.26000213623047,99736.0
1775732957053679295,1574,1775732957053594987,F2008915,4740.0,4740.0,4740.0,6e-06,-0.005921,0.998914,0.09588,0.02085,-0.01368,23.799999237060547,12.039999961853027,103.2300033569336,99736.0
1775732957053690153,1575,1775732957053619482,F2008915,4780.0,4780.0,4780.0,0.010894,-0.006757,0.995113,-0.20756,-0.01221,-0.00239,23.899999618530273,12.020000457763672,103.19999694824219,99736.0
1775732957053694483,1577,1775732957053649244,F2008915,4780.0,4780.0,4780.0,0.005009,-0.002783,0.996855,-0.00495,-0.03098,-0.00257,23.799999237060547,11.979999542236328,103.16999816894531,99736.0
1775732957121040574,1578,1775732957120990031,F2008915,4830.0,4830.0,4830.0,0.002818,-0.00993,0.999718,-0.26647,-0.10735,0.02087,23.799999237060547,12.09000015258789,103.13999938964844,99736.0
1775732957121056986,1579,1775732957121013487,F2008915,4740.0,4740.0,4740.0,-0.00205,-0.008174,0.999043,0.15759,0.01135,0.00711,23.700000762939453,12.09000015258789,103.16999816894531,99736.0
1775732957121059308,1580,1775732957121025696,F2008915,4730.0,4730.0,4730.0,0.012982,-0.005208,0.992836,-0.15256,-0.01665,-0.03047,23.700000762939453,12.180000305175781,103.16999816894531,99736.0
1775732957196514937,1581,1775732957196445704,F2008915,4760.0,4760.0,4760.0,-0.007143,-0.011616,1.006134,-0.05846,-0.00913,0.02719,23.799999237060547,12.069999694824219,103.16999816894531,99736.0
1775732957196524570,1582,1775732957196468691,F2008915,4800.0,4800.0,4800.0,0.001887,-0.005765,1.000596,0.09913,0.00699,-0.01219,23.799999237060547,12.039999961853027,103.16999816894531,99736.0
1775732957196525911,1584,1775732957196492111,F2008915,4700.0,4700.0,4700.0,-0.005984,-0.010946,1.003078,0.09363,-0.00851,0.02712,23.799999237060547,12.100000381469727,103.08000183105469,99738.0
1775732957272054354,1585,1775732957271916501,F2008915,4800.0,4800.0,4800.0,0.012389,-0.006751,0.992333,-0.05482,-0.03685,-0.02575,23.899999618530273,12.0600004196167,103.08000183105469,99738.0
1775732957272074236,1586,1775732957271939522,F2008915,4790.0,4790.0,4790.0,-0.00273,-0.013957,1.002512,-0.02941,-0.05296,0.05497,23.899999618530273,12.130000114440918,103.05000305175781,99738.0
1775732957272076217,1587,1775732957271962238,F2008915,4800.0,4800.0,4800.0,0.000131,-0.007936,0.999708,0.20385,0.01886,-0.00577,23.799999237060547,12.100000381469727,103.16999816894531,99736.0
1775732957272148839,1588,1775732957271974025,F2008915,4900.0,4900.0,4900.0,0.010685,-0.011382,0.995931,-0.16356,-0.05912,-0.00926,23.899999618530273,12.119999885559082,103.16999816894531,99736.0
1775732957339340208,1589,1775732957339302766,F2008915,4770.0,4770.0,4770.0,-0.003612,-0.012076,1.002306,0.15532,-0.00696,-0.01434,23.799999237060547,12.039999961853027,103.13999938964844,99736.0
1775732957339381216,1590,1775732957339330845,F2008915,4850.0,4850.0,4850.0,0.011409,-0.004262,0.993094,0.09067,-0.00027,-0.08173,23.799999237060547,12.140000343322754,103.13999938964844,99736.0
1775732957339391322,1591,1775732957339345576,F2008915,4880.0,4880.0,4880.0,-0.000926,-0.008367,1.002036,-0.03455,-0.01646,-0.01882,23.799999237060547,12.079999923706055,103.08000183105469,99738.0
1775732957414876766,1592,1775732957414787924,F2008915,4760.0,4760.0,4760.0,-0.002894,0.000326,1.001485,0.27025,0.05228,0.01485,23.799999237060547,12.09000015258789,103.08000183105469,99738.0
1775732957414890506,1593,1775732957414811995,F2008915,4770.0,4770.0,4770.0,0.009906,-0.003585,0.995451,-0.21051,-0.01045,-0.00812,23.799999237060547,12.069999694824219,103.05000305175781,99738.0
1775732957414892515,1595,1775732957414841464,F2008915,4790.0,4790.0,4790.0,0.008939,-0.003565,0.99483,0.06656,0.09132,-4e-05,23.899999618530273,12.149999618530273,103.0199966430664,99738.0
1775732957482296742,1596,1775732957482183844,F2008915,4830.0,4830.0,4830.0,-0.00065,-0.009716,1.000784,-0.15122,-0.01434,0.04704,23.799999237060547,12.039999961853027,102.95999908447266,99738.0
1775732957482300296,1598,1775732957482239047,F2008915,4830.0,4830.0,4830.0,0.013119,-0.000485,0.990565,-0.16373,0.00427,-0.03432,23.899999618530273,12.130000114440918,103.08000183105469,99738.0
1775732957557843735,1599,1775732957557658425,F2008915,4790.0,4790.0,4790.0,-0.004872,-0.009122,1.001683,-0.0512,0.01399,0.03419,23.799999237060547,12.229999542236328,103.0199966430664,99738.0
1775732957557852377,1601,1775732957557710853,F2008915,4840.0,4840.0,4840.0,0.005574,-0.011279,1.00181,-0.26346,-0.04471,0.02811,23.799999237060547,12.100000381469727,103.11000061035156,99736.0
1775732957557856940,1602,1775732957557746490,F2008915,4820.0,4820.0,4820.0,-0.007441,-0.012213,1.007044,0.14462,0.03507,0.02339,23.799999237060547,12.069999694824219,103.05000305175781,99738.0
1775732957633464319,1603,1775732957633200906,F2008915,4830.0,4830.0,4830.0,0.013066,-0.008701,0.993494,-0.15687,-0.03878,-0.05085,23.799999237060547,12.130000114440918,103.0199966430664,99738.0
1775732957633474405,1604,1775732957633270397,F2008915,4830.0,4830.0,4830.0,-0.000169,-0.012619,0.999379,-0.05607,-0.03545,0.03273,23.700000762939453,12.0600004196167,103.08000183105469,99738.0
1775732957633490098,1605,1775732957633315960,F2008915,4830.0,4830.0,4830.0,0.001544,-0.004341,0.996252,0.20693,0.05979,0.01063,23.799999237060547,12.029999732971191,103.08000183105469,99738.0
1775732957633503216,1606,1775732957633391467,F2008915,4840.0,4840.0,4840.0,0.006998,-0.00771,0.996909,-0.21513,-0.00394,-0.02403,23.799999237060547,12.079999923706055,103.08000183105469,99738.0
1775732957700580341,1607,1775732957700518831,F2008915,4870.0,4870.0,4870.0,-0.009688,-0.009012,1.006428,0.13496,0.05763,0.0567,23.799999237060547,12.010000228881836,103.05000305175781,99738.0
1775732957700586250,1608,1775732957700540238,F2008915,4920.0,4920.0,4920.0,0.008824,-0.007277,0.996695,0.00532,-0.00436,-0.00117,23.799999237060547,12.069999694824219,103.11000061035156,99736.0
1775732957700592773,1609,1775732957700551861,F2008915,4890.0,4890.0,4890.0,0.003374,-0.013271,1.000325,-0.07859,-0.08768,-0.00215,23.799999237060547,12.079999923706055,103.13999938964844,99736.0
1775732957776106737,1610,1775732957776029602,F2008915,5020.0,5020.0,5020.0,0.001457,-0.006954,1.000026,0.30924,0.04896,-0.02216,23.799999237060547,12.079999923706055,103.19999694824219,99736.0
1775732957776109327,1611,1775732957776048739,F2008915,4910.0,4910.0,4910.0,0.00906,-0.006686,0.997327,-0.16222,-0.01287,-0.04974,23.700000762939453,12.170000076293945,103.2300033569336,99736.0
1775732957776121010,1613,1775732957776078428,F2008915,4770.0,4770.0,4770.0,0.007224,-0.00219,0.995521,0.0299,0.00722,-0.02889,23.700000762939453,12.130000114440918,103.16999816894531,99736.0
1775732957851608574,1614,1775732957851525796,F2008915,4790.0,4790.0,4790.0,0.006203,-0.007693,0.996962,-0.12942,-0.02241,0.00842,23.799999237060547,12.170000076293945,103.16999816894531,99736.0
1775732957851627407,1615,1775732957851550335,F2008915,4730.0,4730.0,4730.0,-0.003359,-0.005947,1.000437,0.13745,0.07494,0.03585,23.799999237060547,12.130000114440918,103.11000061035156,99736.0
1775732957851629734,1617,1775732957851579905,F2008915,4870.0,4870.0,4870.0,-0.007236,-0.009606,1.004623,0.02419,-0.021,0.01159,23.799999237060547,12.100000381469727,103.11000061035156,99736.0
1775732957919058221,1618,1775732957918864481,F2008915,4880.0,4880.0,4880.0,0.00612,-0.001493,0.995689,0.0936,0.05366,-0.01366,23.799999237060547,12.050000190734863,103.11000061035156,99736.0
1775732957919068667,1619,1775732957918891453,F2008915,4850.0,4850.0,4850.0,0.006945,-0.008603,0.996104,-0.2785,-0.03256,0.01545,23.899999618530273,12.130000114440918,103.08000183105469,99738.0
1775732957919070917,1620,1775732957918909766,F2008915,4810.0,4810.0,4810.0,-0.007849,-0.005657,1.00347,0.1959,0.00846,0.01609,23.799999237060547,12.140000343322754,103.05000305175781,99738.0
1775732957994487317,1621,1775732957994387007,F2008915,4810.0,4810.0,4810.0,0.009966,-0.004824,0.995931,-0.02162,-0.02068,-0.0055,23.899999618530273,12.1899995803833,103.11000061035156,99736.0
1775732957994494409,1622,1775732957994411084,F2008915,4820.0,4820.0,4820.0,-0.00544,-0.012958,1.00489,-0.12829,-0.06205,0.04288,23.799999237060547,12.1899995803833,103.13999938964844,99736.0
1775732957994498090,1624,1775732957994439419,F2008915,4750.0,4750.0,4750.0,0.011305,-0.008599,0.993521,-0.20332,0.02426,0.00618,23.799999237060547,12.100000381469727,103.05000305175781,99738.0
1775732958061871319,1625,1775732958061781654,F2008915,4750.0,4750.0,4750.0,-0.008196,-0.009748,1.005378,0.22855,0.08382,0.0621,23.799999237060547,12.130000114440918,103.05000305175781,99738.0
1775732958061878171,1626,1775732958061807808,F2008915,4780.0,4780.0,4780.0,0.007455,-0.003605,0.997856,-0.02928,0.0311,-0.02798,23.799999237060547,12.079999923706055,103.13999938964844,99736.0
1775732958061881952,1627,1775732958061819648,F2008915,4810.0,4810.0,4810.0,-0.002874,-0.009512,1.004782,-0.21094,-0.0573,0.01012,23.700000762939453,12.069999694824219,103.11000061035156,99736.0
1775732958137359152,1628,1775732958137203103,F2008915,4790.0,4790.0,4790.0,-0.001325,-0.006017,1.000759,0.11559,0.00724,-0.01865,23.799999237060547,12.079999923706055,103.13999938964844,99736.0
1775732958137365112,1629,1775732958137226087,F2008915,4740.0,4740.0,4740.0,0.012851,-0.006725,0.993483,-0.18954,-0.04884,-0.0571,23.700000762939453,12.050000190734863,103.13999938964844,99736.0
1775732958137366796,1631,1775732958137256701,F2008915,4770.0,4770.0,4770.0,0.005829,-0.006187,0.997132,0.08626,0.0279,0.00756,23.799999237060547,12.119999885559082,103.11000061035156,99736.0
1775732958212857115,1632,1775732958212782332,F2008915,4790.0,4790.0,4790.0,0.002479,-0.011317,0.999785,-0.19556,-0.06554,-0.02333,23.899999618530273,12.039999961853027,103.08000183105469,99738.0
1775732958212882403,1633,1775732958212809539,F2008915,4750.0,4750.0,4750.0,-0.002076,-0.007989,0.999572,0.22253,0.0496,-0.02141,23.799999237060547,12.119999885559082,103.08000183105469,99738.0
1775732958212883518,1635,1775732958212833692,F2008915,4760.0,4760.0,4760.0,-0.004109,-0.011442,1.003304,0.04969,0.01945,0.02465,23.799999237060547,12.109999656677246,102.98999786376953,99738.0
1775732958280126179,1636,1775732958280066394,F2008915,4780.0,4780.0,4780.0,0.003652,-0.00362,0.998281,0.21979,0.04849,-0.04256,23.899999618530273,12.100000381469727,102.98999786376953,99738.0
1775732958280219983,1637,1775732958280090146,F2008915,4820.0,4820.0,4820.0,0.005218,-0.010432,0.998963,-0.2209,-0.04221,-0.03333,23.799999237060547,12.140000343322754,103.0199966430664,99738.0
1775732958280227407,1638,1775732958280102993,F2008915,4780.0,4780.0,4780.0,-0.00627,-0.008449,1.003395,0.21529,0.03019,0.01107,23.799999237060547,12.010000228881836,103.0199966430664,99738.0
1775732958355925874,1639,1775732958355770729,F2008915,4750.0,4750.0,4750.0,0.011867,-0.003802,0.992942,-0.1011,0.01709,-0.02321,23.799999237060547,12.069999694824219,103.0199966430664,99738.0
1775732958355929961,1640,1775732958355794327,F2008915,4800.0,4800.0,4800.0,-0.002263,-0.009049,1.002025,-0.00208,0.01058,0.0139,23.899999618530273,12.100000381469727,103.0199966430664,99738.0
1775732958355932280,1642,1775732958355826642,F2008915,4760.0,4760.0,4760.0,0.006109,-0.005256,0.997789,-0.1949,-0.05328,-0.02025,23.799999237060547,12.149999618530273,103.05000305175781,99738.0
1775732958423001725,1643,1775732958422924094,F2008915,4760.0,4760.0,4760.0,-0.008088,-0.004318,1.004617,0.13987,-0.01283,0.02253,23.799999237060547,12.100000381469727,102.98999786376953,99738.0
1775732958423011063,1644,1775732958422951933,F2008915,4790.0,4790.0,4790.0,0.010102,-0.002656,0.993153,-0.07182,-0.00497,0.00196,23.799999237060547,12.1899995803833,103.08000183105469,99738.0
1775732958423014691,1645,1775732958422964673,F2008915,4840.0,4840.0,4840.0,-0.002738,-0.00868,1.001964,-0.17614,-0.05109,0.02212,23.799999237060547,12.09000015258789,103.0199966430664,99738.0
1775732958498495633,1646,1775732958498426951,F2008915,4780.0,4780.0,4780.0,-0.005463,-0.004476,1.002251,0.17028,-0.01207,-0.02798,23.700000762939453,12.069999694824219,103.05000305175781,99738.0
1775732958498505965,1647,1775732958498449098,F2008915,4780.0,4780.0,4780.0,0.012388,-0.006366,0.99442,-0.23146,-0.07873,0.00363,23.799999237060547,12.029999732971191,103.0199966430664,99738.0
1775732958498507767,1649,1775732958498472332,F2008915,4820.0,4820.0,4820.0,0.010689,-0.005803,0.993434,0.07943,0.0696,-0.01049,23.799999237060547,12.09000015258789,103.05000305175781,99738.0
1775732958574080794,1650,1775732958573929876,F2008915,4870.0,4870.0,4870.0,0.003023,-0.01318,0.999951,-0.3137,-0.03036,0.00973,23.899999618530273,12.09000015258789,103.05000305175781,99738.0
1775732958574085097,1651,1775732958573956850,F2008915,4860.0,4860.0,4860.0,-0.005033,-0.006406,1.003508,0.30566,0.03048,0.0111,23.799999237060547,12.09000015258789,103.05000305175781,99738.0
1775732958574086616,1653,1775732958573985119,F2008915,4970.0,4970.0,4970.0,-0.003442,-0.012093,1.002621,0.02116,-0.04388,0.00106,23.700000762939453,12.020000457763672,103.08000183105469,99738.0
1775732958641455489,1654,1775732958641314396,F2008915,4940.0,4940.0,4940.0,0.008204,-0.008421,0.994924,0.03017,0.05088,-0.00581,23.899999618530273,12.170000076293945,103.08000183105469,99738.0
1775732958641465746,1655,1775732958641341925,F2008915,4980.0,4980.0,4980.0,0.008603,-0.013125,0.99752,-0.1281,0.00203,0.02045,23.700000762939453,12.170000076293945,103.11000061035156,99736.0
1775732958641472824,1656,1775732958641356184,F2008915,4910.0,4910.0,4910.0,-0.00414,-0.011528,1.003519,0.18011,0.07518,0.00603,23.899999618530273,12.149999618530273,103.11000061035156,99736.0
1775732958716871582,1657,1775732958716789845,F2008915,5000.0,5000.0,5000.0,0.010997,-0.007943,0.994868,0.01499,0.00107,-0.05833,23.799999237060547,12.130000114440918,103.05000305175781,99738.0
1775732958716876120,1658,1775732958716813773,F2008915,5080.0,5080.0,5080.0,-0.000716,-0.012475,1.001002,-0.07672,-0.02214,-0.04289,23.899999618530273,12.09000015258789,103.08000183105469,99738.0
1775732958716877854,1660,1775732958716843775,F2008915,5020.0,5020.0,5020.0,0.010343,-0.00308,0.99561,-0.22638,0.03599,-0.06569,23.899999618530273,12.100000381469727,103.13999938964844,99736.0
1775732958792528612,1661,1775732958792265583,F2008915,4940.0,4940.0,4940.0,-0.005998,-0.004634,1.005926,0.25687,0.09534,-0.01029,23.700000762939453,12.0600004196167,103.08000183105469,99738.0
1775732958792533876,1662,1775732958792289143,F2008915,4950.0,4950.0,4950.0,0.010635,0.00253,0.996642,-0.1437,0.0255,-0.01713,23.5,12.119999885559082,103.0199966430664,99738.0
1775732958792535031,1664,1775732958792320833,F2008915,4980.0,4980.0,4980.0,0.001113,0.000152,0.99916,0.01941,0.05258,0.04342,23.799999237060547,12.100000381469727,103.11000061035156,99736.0
1775732958859744978,1665,1775732958859668044,F2008915,4990.0,4990.0,4990.0,0.013312,-0.006062,0.993273,-0.08115,0.00842,0.05531,23.899999618530273,12.079999923706055,103.11000061035156,99736.0
1775732958859752789,1666,1775732958859696550,F2008915,4920.0,4920.0,4920.0,-0.007645,-0.005096,1.003141,-0.079,0.04978,0.06888,23.799999237060547,12.170000076293945,103.08000183105469,99738.0
1775732958859755646,1667,1775732958859711840,F2008915,5000.0,5000.0,5000.0,0.0086,-0.003857,0.994483,0.15501,0.02792,0.02327,23.700000762939453,12.15999984741211,103.08000183105469,99738.0
1775732958935253734,1668,1775732958935187223,F2008915,5010.0,5010.0,5010.0,0.002871,-0.010118,0.998031,-0.39603,-0.03037,0.0433,23.799999237060547,12.109999656677246,103.05000305175781,99738.0
1775732958935258369,1669,1775732958935210788,F2008915,4920.0,4920.0,4920.0,-0.000933,-0.008266,0.999516,0.13551,0.09664,0.03464,23.799999237060547,12.0600004196167,103.05000305175781,99738.0
1775732958935267379,1670,1775732958935224530,F2008915,5000.0,5000.0,5000.0,0.01003,-0.008779,0.995332,-0.3164,0.03397,-0.01727,23.799999237060547,12.170000076293945,103.16999816894531,99736.0
1775732958935286961,1671,1775732958935235702,F2008915,5040.0,5040.0,5040.0,-0.010465,-0.01331,1.012304,0.19934,0.01933,0.03125,23.899999618530273,12.130000114440918,103.08000183105469,99738.0
1775732959002580855,1672,1775732959002520048,F2008915,5110.0,5110.0,5110.0,-4e-05,-0.004475,1.021564,0.16338,-0.22154,0.00309,23.799999237060547,12.210000038146973,103.05000305175781,99738.0
1775732959002589061,1673,1775732959002555020,F2008915,5200.0,5200.0,5200.0,0.03514,-0.014744,0.994341,-0.74741,-0.58441,0.08891,23.700000762939453,12.119999885559082,103.05000305175781,99738.0
1775732959002680572,1674,1775732959002568932,F2008915,5140.0,5140.0,5140.0,0.042888,0.000312,0.970809,0.09496,-0.00112,0.10826,23.799999237060547,12.149999618530273,103.05000305175781,99738.0
1775732959078036243,1675,1775732959077979455,F2008915,5180.0,5180.0,5180.0,0.022984,-0.00638,0.975402,-0.01446,0.31156,0.02131,23.799999237060547,12.039999961853027,103.0199966430664,99738.0
1775732959078040166,1676,1775732959078014232,F2008915,5240.0,5240.0,5240.0,-0.001756,-0.021059,0.992529,0.30826,0.44621,0.14988,23.799999237060547,12.039999961853027,103.08000183105469,99738.0
1775732959078061398,1677,1775732959078028779,F2008915,5230.0,5230.0,5230.0,-0.006778,-0.009505,1.01784,0.10401,0.60525,0.03639,23.799999237060547,12.079999923706055,103.05000305175781,99738.0
1775732959078152718,1678,1775732959078040181,F2008915,5240.0,5240.0,5240.0,-0.028908,-0.006352,1.037166,-0.03317,-0.13827,-0.03545,23.799999237060547,12.020000457763672,103.05000305175781,99738.0
1775732959153596843,1679,1775732959153517194,F2008915,5090.0,5090.0,5090.0,0.012376,-0.016602,1.013343,-0.02659,-0.63951,-0.02062,23.799999237060547,12.130000114440918,103.05000305175781,99738.0
1775732959153604441,1680,1775732959153543268,F2008915,5030.0,5030.0,5030.0,0.046336,0.00317,0.985957,-0.17433,-0.47549,-0.03825,23.799999237060547,12.069999694824219,103.05000305175781,99738.0
1775732959153609638,1681,1775732959153556587,F2008915,5010.0,5010.0,5010.0,0.021052,-0.005872,0.985618,0.19899,-0.24386,0.07314,23.799999237060547,11.989999771118164,102.98999786376953,99738.0
1775732959153711262,1682,1775732959153567891,F2008915,4900.0,4900.0,4900.0,0.028113,0.000428,0.987782,0.30235,-0.00891,0.09421,23.700000762939453,12.100000381469727,102.95999908447266,99738.0
1775732959220960132,1683,1775732959220870062,F2008915,4860.0,4860.0,4860.0,0.044997,-0.000634,0.977378,-0.41613,0.18938,0.13788,23.799999237060547,12.130000114440918,102.98999786376953,99738.0
1775732959221012851,1684,1775732959220898170,F2008915,4830.0,4830.0,4830.0,0.019113,-0.007153,0.984111,-0.01484,0.54795,0.15083,23.700000762939453,12.149999618530273,103.0199966430664,99738.0
1775732959221016139,1685,1775732959220918969,F2008915,4910.0,4910.0,4910.0,0.00372,-0.005495,0.992466,0.13647,0.60327,0.07674,23.799999237060547,12.079999923706055,103.0199966430664,99738.0
1775732959296562555,1686,1775732959296386014,F2008915,4950.0,4950.0,4950.0,-0.028541,-0.022175,1.01724,0.19163,0.41474,0.0754,23.799999237060547,12.109999656677246,102.98999786376953,99738.0
1775732959296565619,1689,1775732959296433479,F2008915,4910.0,4910.0,4910.0,-0.006864,-0.006358,1.00485,-0.41743,-0.31634,0.00272,23.799999237060547,12.119999885559082,102.95999908447266,99738.0
1775732959371912773,1690,1775732959371845773,F2008915,4960.0,4960.0,4960.0,0.024514,-0.002645,0.979082,0.428,-0.17988,0.02919,23.799999237060547,12.130000114440918,102.95999908447266,99738.0
1775732959371922842,1691,1775732959371866210,F2008915,5020.0,5020.0,5020.0,0.005537,-0.002347,0.983232,-0.43355,0.08645,0.05276,23.799999237060547,12.079999923706055,102.95999908447266,99738.0
1775732959371925055,1693,1775732959371888666,F2008915,4960.0,4960.0,4960.0,0.004821,-0.008922,0.988265,-0.47135,0.38216,0.0717,23.799999237060547,12.039999961853027,102.95999908447266,99738.0
1775732959439388522,1694,1775732959439249416,F2008915,5020.0,5020.0,5020.0,-0.024792,-0.010937,1.006654,0.22916,0.37596,0.08059,23.799999237060547,12.050000190734863,102.98999786376953,99738.0
1775732959439407091,1695,1775732959439273704,F2008915,5040.0,5040.0,5040.0,-0.013484,-0.013689,1.006658,0.11838,0.16264,-0.003,23.799999237060547,12.050000190734863,102.98999786376953,99738.0
1775732959439409060,1696,1775732959439285343,F2008915,5030.0,5030.0,5030.0,-0.014531,-0.014104,1.013408,0.06817,0.01085,-0.00573,23.799999237060547,12.119999885559082,102.93000030517578,99740.0
1775732959514826944,1697,1775732959514772865,F2008915,5040.0,5040.0,5040.0,-0.03554,-0.002538,1.01807,0.03993,-0.17859,-0.03687,23.700000762939453,12.0,103.0199966430664,99738.0
1775732959514832269,1698,1775732959514799874,F2008915,5070.0,5070.0,5070.0,0.006195,-0.001347,0.990411,-0.0922,-0.25185,-0.04754,23.799999237060547,12.15999984741211,102.98999786376953,99738.0
1775732959514845546,1699,1775732959514811876,F2008915,5040.0,5040.0,5040.0,0.011265,-0.012439,0.984026,-0.36164,-0.05105,0.05886,23.799999237060547,11.970000267028809,102.87000274658203,99740.0
1775732959514847482,1700,1775732959514823057,F2008915,5050.0,5050.0,5050.0,0.00707,0.001985,0.981943,0.42398,0.24668,0.05176,23.799999237060547,12.079999923706055,102.9000015258789,99740.0
1775732959582180800,1701,1775732959582105653,F2008915,5010.0,5010.0,5010.0,-0.004408,-0.009729,0.998046,0.13441,0.28118,0.09262,23.899999618530273,12.039999961853027,102.9000015258789,99740.0
1775732959582184568,1702,1775732959582128308,F2008915,4970.0,4970.0,4970.0,-0.032072,-0.011439,1.017754,0.26934,0.20244,0.08443,23.799999237060547,12.130000114440918,102.93000030517578,99740.0
1775732959582185887,1703,1775732959582145529,F2008915,5040.0,5040.0,5040.0,-0.013766,-0.008521,1.007539,-0.22833,0.07109,0.00605,23.700000762939453,12.050000190734863,102.95999908447266,99738.0
1775732959657663876,1704,1775732959657594138,F2008915,5030.0,5030.0,5030.0,-0.007607,-0.010017,1.00172,-0.23904,-0.14322,0.02432,23.799999237060547,12.140000343322754,102.9000015258789,99740.0
1775732959657681788,1705,1775732959657617251,F2008915,5010.0,5010.0,5010.0,0.001979,-0.005475,0.992688,0.34363,0.00473,-0.02061,23.899999618530273,12.079999923706055,102.95999908447266,99738.0
1775732959657683995,1706,1775732959657629774,F2008915,5060.0,5060.0,5060.0,0.001717,-0.00509,0.994787,0.00842,0.0087,-0.0362,23.700000762939453,12.069999694824219,102.93000030517578,99738.0
1775732959657686264,1707,1775732959657640830,F2008915,5090.0,5090.0,5090.0,-0.02441,-0.005508,1.009835,0.06569,-0.01011,-0.00125,23.799999237060547,12.180000305175781,102.87000274658203,99740.0
1775732959733114701,1708,1775732959733044782,F2008915,5150.0,5150.0,5150.0,-0.007183,0.000973,1.000624,-0.10609,-0.00745,0.00925,23.700000762939453,12.149999618530273,102.93000030517578,99740.0
1775732959733238630,1709,1775732959733067144,F2008915,5120.0,5120.0,5120.0,4.3e-05,-0.005651,0.99856,-0.25282,-0.15633,0.02346,23.799999237060547,12.069999694824219,102.93000030517578,99740.0
1775732959733241508,1710,1775732959733083341,F2008915,5010.0,5010.0,5010.0,0.005414,-0.007058,0.996859,0.09645,-0.10404,0.04349,23.799999237060547,12.15999984741211,102.95999908447266,99738.0
1775732959733242975,1711,1775732959733094249,F2008915,5010.0,5010.0,5010.0,0.019867,-0.009917,0.994068,-0.03694,-0.05783,0.02921,23.799999237060547,12.069999694824219,102.98999786376953,99738.0
1775732959800624364,1712,1775732959800502345,F2008915,5040.0,5040.0,5040.0,-0.005746,-0.012821,1.008187,0.09721,-0.09944,0.05696,23.799999237060547,12.119999885559082,102.98999786376953,99738.0
1775732959800636780,1714,1775732959800539063,F2008915,5030.0,5030.0,5030.0,0.014182,-0.012547,0.990321,-0.33989,0.04506,0.02484,23.799999237060547,12.079999923706055,103.05000305175781,99738.0
1775732959876072661,1715,1775732959875959870,F2008915,5050.0,5050.0,5050.0,-0.004214,-0.00535,0.997646,0.08409,0.12309,0.06076,23.899999618530273,12.069999694824219,103.05000305175781,99738.0
1775732959876079427,1718,1775732959876004884,F2008915,5110.0,5110.0,5110.0,-0.004445,-0.012217,1.006033,-0.03195,0.1983,0.09178,23.799999237060547,12.079999923706055,103.05000305175781,99738.0
1775732959943455982,1719,1775732959943347197,F2008915,5070.0,5070.0,5070.0,0.001049,-0.016851,1.004652,-0.49693,0.0033,0.11017,23.799999237060547,12.0600004196167,102.98999786376953,99738.0
1775732959943459425,1722,1775732959943391415,F2008915,5100.0,5100.0,5100.0,-0.004808,-0.028448,1.0061,0.30853,-0.00966,0.06513,23.799999237060547,12.119999885559082,103.05000305175781,99738.0
1775732960019120176,1723,1775732960018877728,F2008915,5040.0,5040.0,5040.0,-0.008228,0.00828,0.994049,-0.78664,0.0609,0.06423,23.799999237060547,12.140000343322754,103.05000305175781,99738.0
1775732960019124596,1725,1775732960018920044,F2008915,5060.0,5060.0,5060.0,-0.001933,-0.009181,0.997334,-0.43547,0.10261,0.08795,23.700000762939453,12.130000114440918,103.05000305175781,99738.0
1775732960094489862,1726,1775732960094356859,F2008915,5090.0,5090.0,5090.0,0.000264,0.003459,0.996345,0.3953,0.05966,0.17782,23.799999237060547,12.119999885559082,103.0199966430664,99738.0
1775732960094494075,1729,1775732960094404067,F2008915,5070.0,5070.0,5070.0,0.011721,-0.008405,0.999742,-0.24828,-0.03555,0.15947,23.700000762939453,12.119999885559082,103.0199966430664,99738.0
1775732960161772479,1730,1775732960161646590,F2008915,5060.0,5060.0,5060.0,-0.007611,-0.021489,1.011261,-0.17192,0.02706,0.17782,23.600000381469727,12.109999656677246,102.93000030517578,99740.0
1775732960161776217,1732,1775732960161685489,F2008915,5090.0,5090.0,5090.0,0.007142,-0.007825,0.995472,0.05207,0.04597,0.08442,23.799999237060547,12.029999732971191,102.98999786376953,99738.0
1775732960237313207,1733,1775732960237182400,F2008915,5010.0,5010.0,5010.0,-0.011123,-0.01158,1.00281,0.25179,0.15812,0.07966,23.799999237060547,12.130000114440918,103.0199966430664,99738.0
1775732960237319704,1736,1775732960237229410,F2008915,5060.0,5060.0,5060.0,0.003111,-0.004555,0.993639,0.26977,-0.01928,0.01353,23.799999237060547,12.109999656677246,103.01000213623047,99738.0
1775732960312795622,1737,1775732960312679742,F2008915,5120.0,5120.0,5120.0,0.008944,-0.012402,0.993168,0.02543,-0.03517,-0.01152,23.899999618530273,12.130000114440918,103.12999725341797,99736.0
1775732960312800606,1740,1775732960312724014,F2008915,5090.0,5090.0,5090.0,-0.005185,-0.014154,1.006155,-0.04324,-0.01061,0.02842,23.799999237060547,12.109999656677246,103.08000183105469,99738.0
1775732960380180027,1741,1775732960380027444,F2008915,5060.0,5060.0,5060.0,-0.007826,-0.006551,1.003484,0.32021,0.00066,0.00876,23.799999237060547,12.109999656677246,103.05000305175781,99738.0
1775732960380184737,1743,1775732960380057397,F2008915,5030.0,5030.0,5030.0,-0.002614,-0.007667,1.003563,0.20729,-0.02993,0.0346,23.799999237060547,12.140000343322754,102.95999908447266,99738.0
1775732960455733960,1744,1775732960455509236,F2008915,5060.0,5060.0,5060.0,0.00921,-0.004505,0.99767,0.08951,0.02221,-0.02141,23.799999237060547,12.140000343322754,102.95999908447266,99738.0
1775732960455745265,1747,1775732960455560618,F2008915,5140.0,5140.0,5140.0,0.018044,-0.005003,0.989478,-0.17854,0.09559,0.00768,23.799999237060547,12.130000114440918,102.9000015258789,99740.0
1775732960522946882,1748,1775732960522843208,F2008915,5170.0,5170.0,5170.0,-0.005792,-0.014139,1.002646,0.28604,0.1436,0.03364,23.799999237060547,12.039999961853027,102.93000030517578,99740.0
1775732960522950675,1750,1775732960522876424,F2008915,5150.0,5150.0,5150.0,0.000254,-0.009052,1.000025,-0.20572,-0.03802,0.01877,23.799999237060547,12.109999656677246,102.80999755859375,99740.0
1775732960598530355,1751,1775732960598400272,F2008915,5070.0,5070.0,5070.0,-0.005334,-0.001576,1.000508,0.17735,0.10986,0.05212,23.799999237060547,12.079999923706055,102.83999633789062,99740.0
1775732960598535006,1754,1775732960598445403,F2008915,5060.0,5060.0,5060.0,-0.00569,0.002661,1.002028,0.0271,0.06333,0.00899,23.799999237060547,12.039999961853027,102.91999816894531,99740.0
1775732960674047455,1755,1775732960673846258,F2008915,5090.0,5090.0,5090.0,0.003143,-0.004986,0.996968,-0.31309,-0.14837,-0.02987,23.799999237060547,12.09000015258789,102.87000274658203,99740.0
1775732960674050665,1758,1775732960673889629,F2008915,5180.0,5180.0,5180.0,0.006749,-0.004291,0.991594,-0.19015,-0.10971,0.12877,23.799999237060547,12.130000114440918,102.98999786376953,99738.0
1775732960741306356,1759,1775732960741237403,F2008915,5070.0,5070.0,5070.0,0.004302,-0.010513,0.9946,0.28547,0.07396,0.1283,23.700000762939453,12.109999656677246,103.0199966430664,99738.0
1775732960741330669,1760,1775732960741261394,F2008915,5080.0,5080.0,5080.0,0.010259,-0.011691,0.995271,-0.32964,-0.07407,0.09716,23.799999237060547,12.109999656677246,103.05000305175781,99738.0
1775732960741334884,1761,1775732960741276883,F2008915,5060.0,5060.0,5060.0,-0.001177,-0.018287,1.007302,0.15413,0.00115,0.13484,23.799999237060547,12.130000114440918,103.13999938964844,99736.0
1775732960817030863,1762,1775732960816802677,F2008915,5100.0,5100.0,5100.0,0.009014,-0.004114,1.000975,-0.0644,0.06809,0.08551,23.799999237060547,12.149999618530273,103.12999725341797,99736.0
1775732960817036175,1765,1775732960816884691,F2008915,5050.0,5050.0,5050.0,0.015,-0.001913,0.991049,-0.29754,0.01324,0.11319,23.799999237060547,12.100000381469727,103.0999984741211,99738.0
1775732960892338507,1766,1775732960892188650,F2008915,5090.0,5090.0,5090.0,-0.003237,-0.015629,1.002446,0.34871,0.1255,0.14777,23.799999237060547,12.15999984741211,103.12999725341797,99736.0
1775732960892342199,1767,1775732960892226079,F2008915,5160.0,5160.0,5160.0,-0.002158,-0.004985,0.999938,0.08407,0.14708,0.11313,23.799999237060547,12.130000114440918,103.0999984741211,99738.0
1775732960892344487,1768,1775732960892237724,F2008915,5230.0,5230.0,5230.0,-0.002121,-0.010225,1.000157,0.10157,-0.00099,0.16213,23.700000762939453,12.100000381469727,103.04000091552734,99738.0
1775732960892353847,1769,1775732960892250225,F2008915,5120.0,5120.0,5120.0,-0.002922,-0.006717,0.997771,-0.05735,0.05145,0.2033,23.899999618530273,12.1899995803833,103.04000091552734,99738.0
1775732960959705575,1770,1775732960959597444,F2008915,5140.0,5140.0,5140.0,0.013103,-0.00052,0.987815,0.38755,0.08561,0.14772,23.700000762939453,12.149999618530273,103.01000213623047,99738.0
1775732960959715761,1771,1775732960959623662,F2008915,5110.0,5110.0,5110.0,-0.008594,-0.002529,1.001961,-0.06962,0.05241,0.14598,23.799999237060547,12.119999885559082,102.9800033569336,99738.0
1775732960959719816,1772,1775732960959647903,F2008915,5020.0,5020.0,5020.0,-0.005402,-0.006828,1.001443,0.27213,0.05353,0.18394,23.799999237060547,12.180000305175781,102.94999694824219,99738.0
1775732961035128408,1773,1775732961035047181,F2008915,4920.0,4920.0,4920.0,0.005342,-0.00639,0.996992,-0.6468,-0.07081,0.1783,23.899999618530273,12.15999984741211,103.01000213623047,99738.0
1775732961035139750,1774,1775732961035082383,F2008915,4860.0,4860.0,4860.0,-0.006248,0.002929,0.999166,0.15593,0.02525,0.12766,23.799999237060547,12.15999984741211,103.01000213623047,99738.0
1775732961035216178,1775,1775732961035105130,F2008915,4940.0,4940.0,4940.0,0.008734,-0.010208,0.996256,0.07512,0.00403,0.09797,23.899999618530273,12.020000457763672,103.01000213623047,99738.0
1775732961035217910,1776,1775732961035125394,F2008915,4940.0,4940.0,4940.0,-0.009252,-0.016055,1.009506,-0.33601,-0.01787,0.21379,23.799999237060547,12.09000015258789,103.01000213623047,99738.0
1775732961102519242,1777,1775732961102452156,F2008915,4920.0,4920.0,4920.0,-0.007369,0.010768,1.007152,0.10879,-0.05433,0.15991,23.799999237060547,12.119999885559082,103.01000213623047,99738.0
1775732961102577455,1778,1775732961102494257,F2008915,4930.0,4930.0,4930.0,0.015258,-0.013209,0.999979,-0.12271,-0.26163,0.14526,23.799999237060547,12.079999923706055,102.9800033569336,99738.0
1775732961102587311,1779,1775732961102517500,F2008915,4840.0,4840.0,4840.0,0.007768,-0.013353,0.996324,-0.27357,-0.09277,0.20628,23.799999237060547,12.09000015258789,102.9800033569336,99738.0
1775732961178067459,1780,1775732961177997491,F2008915,4890.0,4890.0,4890.0,0.017372,0.005246,0.982201,-0.16286,0.03891,0.18939,23.799999237060547,12.09000015258789,102.9800033569336,99738.0
1775732961178072861,1781,1775732961178019922,F2008915,4920.0,4920.0,4920.0,0.009955,-0.02136,0.995128,0.00404,0.06609,0.15735,23.799999237060547,12.050000190734863,102.9800033569336,99738.0
1775732961178086140,1783,1775732961178049821,F2008915,4950.0,4950.0,4950.0,0.008361,-0.00209,1.005456,-0.23012,-0.08074,0.08219,23.799999237060547,12.130000114440918,103.01000213623047,99738.0
1775732961253565465,1784,1775732961253480625,F2008915,4970.0,4970.0,4970.0,0.010291,-0.0216,1.006616,-0.35243,-0.18534,0.09535,23.799999237060547,12.050000190734863,103.05000305175781,99738.0
1775732961253570800,1785,1775732961253505159,F2008915,5030.0,5030.0,5030.0,0.022076,0.005441,0.991564,0.0332,-0.08489,0.04295,23.799999237060547,12.109999656677246,103.08000183105469,99738.0
1775732961253581576,1786,1775732961253521633,F2008915,5110.0,5110.0,5110.0,0.013522,-0.00824,0.998075,-0.01815,-0.09163,0.09056,23.799999237060547,12.0,103.05000305175781,99738.0
1775732961253586362,1787,1775732961253532512,F2008915,5130.0,5130.0,5130.0,0.0106,-0.008939,1.003889,-0.06262,-0.04587,0.17349,23.799999237060547,12.109999656677246,103.05000305175781,99738.0
1775732961320930060,1788,1775732961320816469,F2008915,5230.0,5230.0,5230.0,0.033545,-0.000351,0.989519,-0.45421,0.00958,0.12488,23.799999237060547,12.130000114440918,103.08000183105469,99738.0
1775732961320934989,1789,1775732961320838446,F2008915,5270.0,5270.0,5270.0,0.016171,-0.011569,0.999529,-0.12235,-0.01826,0.11091,23.700000762939453,12.039999961853027,103.0199966430664,99738.0
1775732961320938512,1790,1775732961320850375,F2008915,5330.0,5330.0,5330.0,0.020493,-0.009733,0.997737,0.14099,0.05748,0.09978,23.799999237060547,12.1899995803833,103.05000305175781,99738.0
1775732961396367013,1791,1775732961396295934,F2008915,5390.0,5390.0,5390.0,0.024771,-0.011582,1.00092,-0.2126,-0.07043,0.14216,23.899999618530273,12.0600004196167,103.05000305175781,99738.0
1775732961396381720,1792,1775732961396320154,F2008915,5320.0,5320.0,5320.0,0.011427,-0.012634,1.010351,-0.17575,-0.03992,0.16802,23.799999237060547,11.989999771118164,102.94999694824219,99738.0
1775732961396385318,1794,1775732961396343106,F2008915,5330.0,5330.0,5330.0,0.035995,-0.018301,0.997335,-0.20184,-0.13266,0.12506,23.799999237060547,12.029999732971191,102.94999694824219,99738.0
1775732961471846513,1795,1775732961471773761,F2008915,5220.0,5220.0,5220.0,0.034801,-0.013992,0.995517,0.37663,0.02822,0.11068,23.799999237060547,12.15999984741211,102.9800033569336,99738.0
1775732961471860343,1796,1775732961471797444,F2008915,5140.0,5140.0,5140.0,0.043482,-0.012665,0.994032,-0.21137,-0.00739,0.07835,23.700000762939453,12.069999694824219,103.01000213623047,99738.0
1775732961471862324,1798,1775732961471825443,F2008915,5050.0,5050.0,5050.0,0.042723,-0.008268,0.995303,-0.00936,0.01763,0.06251,23.899999618530273,12.079999923706055,103.06999969482422,99738.0
1775732961539287552,1799,1775732961539169971,F2008915,4910.0,4910.0,4910.0,0.042456,-0.009661,0.996777,-0.03403,-0.05959,0.08498,23.799999237060547,12.010000228881836,103.0999984741211,99738.0
1775732961539289930,1800,1775732961539193310,F2008915,4770.0,4770.0,4770.0,0.039656,-0.004736,1.000156,0.35746,0.05485,0.06873,23.700000762939453,12.140000343322754,103.04000091552734,99738.0
1775732961539299363,1801,1775732961539208680,F2008915,4710.0,4710.0,4710.0,0.049058,-0.005216,0.999788,0.07494,-0.05053,0.05729,23.899999618530273,12.100000381469727,102.9800033569336,99738.0
1775732961614708185,1802,1775732961614617929,F2008915,4730.0,4730.0,4730.0,0.030817,-0.008768,1.011015,0.09455,-0.13076,0.09865,23.799999237060547,12.0600004196167,102.94999694824219,99738.0
1775732961614717665,1803,1775732961614643199,F2008915,4860.0,4860.0,4860.0,0.053055,0.003066,0.997298,0.05605,-0.14991,0.07532,23.799999237060547,12.170000076293945,102.9800033569336,99738.0
1775732961614721038,1805,1775732961614674864,F2008915,5110.0,5110.0,5110.0,0.055651,-0.001756,0.989212,0.23561,0.05492,0.13147,23.799999237060547,12.170000076293945,102.9800033569336,99738.0
1775732961682165457,1806,1775732961682074923,F2008915,5290.0,5290.0,5290.0,0.065053,-0.003207,0.985885,-0.12614,0.09523,0.08854,23.799999237060547,12.069999694824219,103.06999969482422,99738.0
1775732961682168214,1807,1775732961682102906,F2008915,5460.0,5460.0,5460.0,0.045884,-0.006344,1.000784,0.03957,0.1239,0.15215,23.799999237060547,12.149999618530273,103.04000091552734,99738.0
1775732961682169346,1808,1775732961682120910,F2008915,5550.0,5550.0,5550.0,0.050292,-0.002404,1.00286,-0.069,0.13768,0.10157,23.799999237060547,12.170000076293945,103.04000091552734,99738.0
1775732961757651102,1809,1775732961757510134,F2008915,5390.0,5390.0,5390.0,0.064004,-0.006899,1.000287,-0.37731,-0.00874,0.10103,23.700000762939453,12.09000015258789,103.11000061035156,99736.0
1775732961757657313,1812,1775732961757551828,F2008915,4860.0,4860.0,4860.0,0.047423,-0.014522,0.999728,-0.37837,0.12556,0.12375,23.700000762939453,12.0600004196167,103.04000091552734,99738.0
1775732961833093619,1813,1775732961832997010,F2008915,4810.0,4810.0,4810.0,0.048873,0.000129,0.999178,-0.0844,0.24126,0.1052,23.899999618530273,12.079999923706055,103.0999984741211,99738.0
1775732961833103700,1814,1775732961833026053,F2008915,4950.0,4950.0,4950.0,0.067091,-0.009438,0.992981,-0.56646,0.1481,0.12727,23.799999237060547,12.079999923706055,103.12999725341797,99736.0
1775732961833104877,1816,1775732961833075874,F2008915,5380.0,5380.0,5380.0,0.081835,-0.012188,0.975839,-0.17433,0.64685,0.01095,23.899999618530273,12.039999961853027,103.04000091552734,99738.0
1775732961900544187,1817,1775732961900417252,F2008915,5490.0,5490.0,5490.0,0.04551,-0.015164,0.996933,-0.09677,0.84624,0.03459,23.799999237060547,12.210000038146973,103.01000213623047,99738.0
1775732961900552954,1819,1775732961900452286,F2008915,5090.0,5090.0,5090.0,0.067258,-0.004087,0.995571,-0.61061,0.74022,-0.14755,23.799999237060547,12.15999984741211,103.01000213623047,99738.0
1775732961975997678,1820,1775732961975855294,F2008915,4930.0,4930.0,4930.0,0.039413,-0.013085,0.996639,-0.21643,0.8661,-0.1267,23.899999618530273,12.170000076293945,102.9800033569336,99738.0
1775732961976019055,1821,1775732961975879455,F2008915,4930.0,4930.0,4930.0,0.033557,-0.002256,0.983607,-0.00967,0.99572,-0.15455,23.799999237060547,12.130000114440918,103.01000213623047,99738.0
1775732961976024012,1823,1775732961975908652,F2008915,5120.0,5120.0,5120.0,0.003594,-0.010488,0.998554,-0.23986,1.21417,-0.17368,23.799999237060547,12.069999694824219,103.04000091552734,99738.0
1775732962043373869,1824,1775732962043301864,F2008915,5190.0,5190.0,5190.0,0.01875,-0.006074,0.984299,-0.49869,1.29582,-0.28617,23.799999237060547,12.039999961853027,103.04000091552734,99738.0
1775732962043388165,1825,1775732962043328372,F2008915,5240.0,5240.0,5240.0,-0.001427,-0.008976,0.994241,-0.21779,1.43323,-0.19037,23.799999237060547,12.079999923706055,103.04000091552734,99738.0
1775732962043391828,1826,1775732962043344915,F2008915,5150.0,5150.0,5150.0,-0.01379,-0.006519,1.004434,0.16261,1.53582,-0.18536,23.899999618530273,12.029999732971191,103.06999969482422,99738.0
1775732962118977909,1827,1775732962118822232,F2008915,5120.0,5120.0,5120.0,-0.028751,-0.009632,1.024251,-0.33817,1.23714,-0.14404,23.799999237060547,12.0600004196167,103.16000366210938,99736.0
1775732962119005835,1828,1775732962118846822,F2008915,5100.0,5100.0,5100.0,-0.045408,-0.009897,1.029493,-0.27078,0.88823,-0.14108,23.899999618530273,12.119999885559082,103.0999984741211,99738.0
1775732962119011011,1829,1775732962118874822,F2008915,5090.0,5090.0,5090.0,-0.012119,-0.011285,1.002797,-0.32263,0.62292,-0.16865,23.700000762939453,12.149999618530273,103.0999984741211,99738.0
1775732962119129503,1830,1775732962118885978,F2008915,5160.0,5160.0,5160.0,-0.017898,-0.016223,1.000111,-0.56694,0.55357,-0.19125,23.700000762939453,12.020000457763672,103.12999725341797,99736.0
1775732962194307345,1831,1775732962194234532,F2008915,5190.0,5190.0,5190.0,-0.017464,-0.013735,0.993015,0.2576,0.68151,-0.2394,23.799999237060547,12.069999694824219,103.06999969482422,99738.0
1775732962194333769,1832,1775732962194258910,F2008915,5210.0,5210.0,5210.0,-0.013832,-0.011333,0.994683,-0.36188,0.5873,-0.2253,23.700000762939453,12.149999618530273,103.16000366210938,99736.0
1775732962194338054,1833,1775732962194290209,F2008915,5170.0,5170.0,5170.0,-0.034234,-0.005548,1.002471,0.18966,0.68606,-0.17867,23.799999237060547,12.0600004196167,103.16000366210938,99736.0
1775732962194446973,1834,1775732962194300911,F2008915,5160.0,5160.0,5160.0,-0.016439,-0.010665,0.993085,-0.27953,0.60077,-0.22255,23.799999237060547,12.109999656677246,103.22000122070312,99736.0
1775732962261694595,1835,1775732962261577020,F2008915,5220.0,5220.0,5220.0,-0.015529,-0.01575,0.994946,-0.23981,0.58749,-0.15098,23.799999237060547,12.130000114440918,103.22000122070312,99736.0
1775732962261708124,1836,1775732962261599586,F2008915,5170.0,5170.0,5170.0,-0.02281,-0.017145,0.999988,0.2326,0.7222,-0.09186,23.899999618530273,12.09000015258789,103.22000122070312,99736.0
1775732962261709176,1837,1775732962261615470,F2008915,5220.0,5220.0,5220.0,-0.01888,-0.019474,1.002459,0.13354,0.70359,-0.09818,23.799999237060547,12.09000015258789,103.19000244140625,99736.0
1775732962337115657,1838,1775732962337061541,F2008915,5260.0,5260.0,5260.0,-0.038682,-0.029162,1.017301,0.19327,0.65917,-0.16186,23.899999618530273,12.130000114440918,103.12999725341797,99736.0
1775732962337123515,1839,1775732962337087370,F2008915,5290.0,5290.0,5290.0,-0.020667,-0.021374,1.003381,0.17684,0.68745,-0.24149,23.799999237060547,12.09000015258789,103.12999725341797,99736.0
1775732962337146444,1840,1775732962337101976,F2008915,5250.0,5250.0,5250.0,-0.023566,-0.02368,1.005923,0.29539,0.58942,-0.24235,23.600000381469727,12.15999984741211,103.12999725341797,99736.0
1775732962337298413,1841,1775732962337113384,F2008915,5180.0,5180.0,5180.0,-0.03154,-0.01295,1.002834,0.476,0.6501,-0.27295,23.799999237060547,12.09000015258789,103.12999725341797,99736.0
1775732962412623925,1842,1775732962412557323,F2008915,5240.0,5240.0,5240.0,-0.023973,-0.01194,0.99573,0.48911,0.5683,-0.28964,23.799999237060547,12.069999694824219,103.06999969482422,99738.0
1775732962412629477,1843,1775732962412590449,F2008915,5250.0,5250.0,5250.0,-0.045661,-0.01269,1.005621,0.23532,0.51003,-0.21109,23.799999237060547,12.130000114440918,103.06999969482422,99738.0
1775732962412668553,1844,1775732962412610083,F2008915,5230.0,5230.0,5230.0,-0.032926,-0.007165,0.998028,0.78045,0.53948,-0.18557,23.700000762939453,12.130000114440918,103.06999969482422,99738.0
1775732962412887602,1845,1775732962412627050,F2008915,5310.0,5310.0,5310.0,-0.023397,-0.016254,0.994747,0.07224,0.47047,-0.15253,23.799999237060547,12.100000381469727,103.06999969482422,99738.0
1775732962480010462,1846,1775732962479928624,F2008915,5210.0,5210.0,5210.0,-0.035038,-0.009638,0.999224,0.701,0.58109,-0.14127,23.799999237060547,12.050000190734863,103.0999984741211,99738.0
1775732962480017174,1847,1775732962479952069,F2008915,5270.0,5270.0,5270.0,-0.021243,-0.007621,0.995002,0.50155,0.587,-0.19315,23.799999237060547,12.109999656677246,103.12999725341797,99736.0
1775732962480018134,1848,1775732962479969121,F2008915,5340.0,5340.0,5340.0,-0.040777,-0.007815,1.009274,0.54893,0.58032,-0.17281,23.799999237060547,12.119999885559082,103.0999984741211,99738.0
1775732962555492169,1849,1775732962555435903,F2008915,5280.0,5280.0,5280.0,-0.041747,-0.00909,1.003893,0.62836,0.63384,-0.25415,23.799999237060547,12.100000381469727,103.16000366210938,99736.0
1775732962555508812,1850,1775732962555457652,F2008915,5350.0,5350.0,5350.0,-0.039468,-0.010113,1.002263,0.39089,0.49961,-0.25988,23.899999618530273,12.09000015258789,103.16000366210938,99736.0
1775732962555513272,1851,1775732962555469251,F2008915,5340.0,5340.0,5340.0,-0.043308,-0.006688,1.000471,0.53302,0.37813,-0.19604,23.700000762939453,12.100000381469727,103.16000366210938,99736.0
1775732962555621957,1852,1775732962555480019,F2008915,5380.0,5380.0,5380.0,-0.03045,-0.002179,0.993265,0.90922,0.45277,-0.21418,23.799999237060547,12.09000015258789,103.0999984741211,99738.0
1775732962622921140,1853,1775732962622810568,F2008915,5400.0,5400.0,5400.0,-0.045816,-0.004122,1.004486,0.16647,0.31435,-0.1501,23.799999237060547,12.029999732971191,103.0999984741211,99738.0
1775732962622956033,1854,1775732962622846672,F2008915,5290.0,5290.0,5290.0,-0.043184,-0.000357,1.001897,0.84327,0.27322,-0.11398,23.899999618530273,12.09000015258789,103.0999984741211,99738.0
1775732962622959429,1855,1775732962622873383,F2008915,5310.0,5310.0,5310.0,-0.019895,-0.003998,0.99295,0.03474,0.23017,-0.12709,23.700000762939453,12.039999961853027,103.12999725341797,99736.0
1775732962698379731,1856,1775732962698315531,F2008915,5320.0,5320.0,5320.0,-0.03704,-0.014283,1.001719,0.51604,0.20896,-0.07611,23.700000762939453,12.039999961853027,103.12999725341797,99736.0
1775732962698393772,1857,1775732962698339685,F2008915,5360.0,5360.0,5360.0,-0.022122,0.000492,0.991041,0.36244,0.27629,-0.16363,23.799999237060547,12.039999961853027,103.12999725341797,99736.0
1775732962698395133,1858,1775732962698351822,F2008915,5420.0,5420.0,5420.0,-0.025371,-0.015929,1.000924,0.44199,0.26039,-0.18201,23.899999618530273,12.140000343322754,103.16000366210938,99736.0
1775732962698396230,1859,1775732962698362937,F2008915,5360.0,5360.0,5360.0,-0.041107,-0.004387,1.003954,0.22922,0.37135,-0.22622,23.799999237060547,12.09000015258789,103.12999725341797,99736.0
1775732962773811548,1860,1775732962773767219,F2008915,5380.0,5380.0,5380.0,-0.023232,-0.002644,0.995343,0.34486,0.38014,-0.27551,23.700000762939453,12.079999923706055,103.0999984741211,99738.0
1775732962773835444,1861,1775732962773788957,F2008915,5390.0,5390.0,5390.0,-0.03908,-0.005026,1.005104,0.06956,0.27309,-0.19466,23.600000381469727,12.149999618530273,103.06999969482422,99738.0
1775732962773839265,1862,1775732962773800236,F2008915,5410.0,5410.0,5410.0,-0.03334,-0.001511,1.000403,0.55733,0.42761,-0.15311,23.799999237060547,12.149999618530273,103.06999969482422,99738.0
1775732962773853440,1863,1775732962773811401,F2008915,5370.0,5370.0,5370.0,-0.031037,0.000467,0.998506,0.02268,0.2625,-0.1107,23.600000381469727,12.119999885559082,103.06999969482422,99738.0
1775732962841291147,1864,1775732962841198059,F2008915,5310.0,5310.0,5310.0,-0.048257,-0.006493,1.007047,0.48278,0.2677,-0.04982,23.799999237060547,12.119999885559082,103.06999969482422,99738.0
1775732962841302685,1865,1775732962841235683,F2008915,5380.0,5380.0,5380.0,-0.029341,-0.008626,0.997175,0.22148,0.18553,-0.04988,23.700000762939453,12.079999923706055,103.0999984741211,99738.0
1775732962841306679,1866,1775732962841257320,F2008915,5390.0,5390.0,5390.0,-0.037501,-0.014263,1.005442,0.29112,0.03913,-0.01491,23.799999237060547,12.09000015258789,103.0999984741211,99738.0
1775732962916758327,1867,1775732962916655305,F2008915,5370.0,5370.0,5370.0,-0.026331,-0.005995,0.998458,0.3933,0.12604,-0.11726,23.700000762939453,12.079999923706055,103.04000091552734,99738.0
1775732962916760546,1869,1775732962916705803,F2008915,5360.0,5360.0,5360.0,-0.027264,-0.006823,0.995102,0.10419,0.05502,-0.16676,23.799999237060547,12.149999618530273,103.12999725341797,99736.0
1775732962916796645,1870,1775732962916724775,F2008915,5410.0,5410.0,5410.0,-0.012668,0.000419,0.984358,0.34326,0.24016,-0.23747,23.799999237060547,12.039999961853027,103.06999969482422,99738.0
1775732962992249764,1871,1775732962992124574,F2008915,5490.0,5490.0,5490.0,-0.027373,-0.001944,0.99137,-0.05862,0.28814,-0.16553,23.799999237060547,12.180000305175781,103.06999969482422,99738.0
1775732962992259465,1874,1775732962992169515,F2008915,5460.0,5460.0,5460.0,-0.050765,-0.005389,1.012395,0.21289,0.24225,-0.0237,23.799999237060547,12.130000114440918,103.0999984741211,99738.0
1775732963059777354,1875,1775732963059564049,F2008915,5490.0,5490.0,5490.0,-0.03456,0.003665,1.004503,0.13577,0.16972,-0.04099,23.899999618530273,12.180000305175781,103.12999725341797,99736.0
1775732963059787176,1877,1775732963059600391,F2008915,5410.0,5410.0,5410.0,-0.040785,0.002727,1.004921,0.12046,0.02192,-0.00447,23.899999618530273,12.069999694824219,103.06999969482422,99738.0
1775732963135161155,1878,1775732963135041485,F2008915,5440.0,5440.0,5440.0,-0.014691,0.00095,0.991447,-0.10619,0.0353,-0.0656,23.899999618530273,12.079999923706055,103.0999984741211,99738.0
1775732963135163712,1881,1775732963135086649,F2008915,5380.0,5380.0,5380.0,-0.020371,-0.00379,0.991688,-0.31203,0.18288,-0.05567,23.799999237060547,12.09000015258789,103.19000244140625,99736.0
1775732963202537587,1882,1775732963202374877,F2008915,5370.0,5370.0,5370.0,-0.040916,-0.013175,1.003398,0.01924,0.24923,-0.05278,23.799999237060547,12.09000015258789,103.16000366210938,99736.0
1775732963202545691,1883,1775732963202399140,F2008915,5380.0,5380.0,5380.0,-0.027457,-0.00683,0.997415,-0.06012,0.18451,-0.10413,23.899999618530273,12.130000114440918,103.19000244140625,99736.0
1775732963202550716,1884,1775732963202415124,F2008915,5400.0,5400.0,5400.0,-0.035355,-0.012158,1.004479,-0.26622,0.07646,-0.0493,23.899999618530273,12.180000305175781,103.19000244140625,99736.0
1775732963278096997,1885,1775732963277919646,F2008915,5390.0,5390.0,5390.0,-0.033758,-0.009053,1.002718,0.21723,0.0614,-0.08185,23.799999237060547,12.119999885559082,103.19000244140625,99736.0
1775732963278105547,1886,1775732963277941022,F2008915,5370.0,5370.0,5370.0,-0.017289,-0.005699,0.994749,-0.24595,0.05289,-0.08225,23.899999618530273,12.119999885559082,103.22000122070312,99736.0
1775732963278109797,1887,1775732963277952781,F2008915,5400.0,5400.0,5400.0,-0.035025,-0.00977,1.004392,0.1606,0.07029,-0.01168,23.799999237060547,12.109999656677246,103.16000366210938,99736.0
1775732963278115618,1888,1775732963278007562,F2008915,5490.0,5490.0,5490.0,-0.021186,-0.004552,0.996845,0.14943,0.09452,-0.03854,23.899999618530273,12.079999923706055,103.04000091552734,99738.0
1775732963353449695,1889,1775732963353379305,F2008915,5450.0,5450.0,5450.0,-0.021126,-0.011489,0.998644,-0.07711,0.06559,0.01134,23.700000762939453,12.079999923706055,103.01000213623047,99738.0
1775732963353457021,1890,1775732963353400129,F2008915,5380.0,5380.0,5380.0,-0.034791,-0.008097,1.003199,0.29911,0.179,0.01248,23.799999237060547,12.130000114440918,102.9800033569336,99738.0
1775732963353458547,1892,1775732963353426257,F2008915,5450.0,5450.0,5450.0,-0.033527,-0.010145,1.004026,0.10278,0.05081,-0.04236,23.899999618530273,12.100000381469727,102.86000061035156,99740.0
1775732963420997955,1893,1775732963420813781,F2008915,5470.0,5470.0,5470.0,-0.025422,-0.001591,0.996946,0.27954,0.11977,-0.11559,23.799999237060547,12.109999656677246,102.88999938964844,99740.0
1775732963421004546,1894,1775732963420868157,F2008915,5500.0,5500.0,5500.0,-0.02356,-0.013202,0.997267,-0.04328,-0.03001,-0.08956,23.700000762939453,12.079999923706055,102.88999938964844,99740.0
1775732963421093274,1895,1775732963420906169,F2008915,5440.0,5440.0,5440.0,-0.035893,-0.000907,1.002306,0.25551,0.00622,-0.06358,23.799999237060547,12.149999618530273,102.86000061035156,99740.0
1775732963496394180,1896,1775732963496274145,F2008915,5460.0,5460.0,5460.0,-0.009634,0.013572,0.98751,0.10178,0.02821,-0.06098,23.700000762939453,12.029999732971191,102.7699966430664,99740.0
1775732963496397223,1899,1775732963496318813,F2008915,5490.0,5490.0,5490.0,-0.017381,0.004012,0.995464,-0.14457,0.04553,0.04105,23.899999618530273,12.039999961853027,102.9000015258789,99740.0
1775732963571990299,1900,1775732963571766857,F2008915,5450.0,5450.0,5450.0,-0.032518,-0.008295,1.005117,0.0095,0.08077,0.04611,23.799999237060547,12.119999885559082,102.88999938964844,99740.0
1775732963571996896,1903,1775732963571810269,F2008915,5480.0,5480.0,5480.0,-0.026411,-0.006923,0.999569,0.30579,0.04698,0.05221,23.799999237060547,12.109999656677246,102.94999694824219,99738.0
1775732963639187788,1904,1775732963639115086,F2008915,5450.0,5450.0,5450.0,-0.015925,-0.00902,0.99364,-0.17569,-0.00651,-0.01412,23.799999237060547,12.199999809265137,102.94999694824219,99738.0
1775732963639197173,1905,1775732963639142163,F2008915,5470.0,5470.0,5470.0,-0.033378,-0.007688,1.003111,0.04608,0.04727,0.03803,23.799999237060547,12.069999694824219,102.88999938964844,99740.0
1775732963639198367,1906,1775732963639158166,F2008915,5470.0,5470.0,5470.0,-0.01536,-0.00304,0.994181,0.06999,0.04786,0.04078,23.899999618530273,12.010000228881836,102.91999816894531,99740.0
1775732963714686467,1907,1775732963714579880,F2008915,5500.0,5500.0,5500.0,-0.020734,-0.019124,1.001381,-0.14635,0.01947,0.00912,23.700000762939453,12.079999923706055,102.91999816894531,99740.0
1775732963714709985,1908,1775732963714597044,F2008915,5480.0,5480.0,5480.0,-0.032111,-0.010732,1.005651,0.23957,0.07168,-0.03689,23.700000762939453,12.100000381469727,102.86000061035156,99740.0
1775732963714712185,1910,1775732963714625203,F2008915,5480.0,5480.0,5480.0,-0.033099,-0.012838,1.007115,0.0907,-0.01499,-0.00977,23.799999237060547,12.09000015258789,102.9800033569336,99738.0
1775732963782073847,1911,1775732963782008182,F2008915,5480.0,5480.0,5480.0,-0.024988,0.001448,0.997878,0.15111,0.00321,-0.07391,23.799999237060547,12.050000190734863,102.9800033569336,99738.0
1775732963782164799,1912,1775732963782041200,F2008915,5450.0,5450.0,5450.0,-0.016141,0.00112,0.99352,-0.08377,-0.06385,-0.03916,23.799999237060547,12.050000190734863,102.94999694824219,99738.0
1775732963782172397,1913,1775732963782061954,F2008915,5420.0,5420.0,5420.0,-0.029119,-0.002675,0.999945,0.16847,0.00142,0.01645,23.799999237060547,12.09000015258789,102.9800033569336,99738.0
1775732963857529893,1914,1775732963857450772,F2008915,5470.0,5470.0,5470.0,-0.010962,0.00345,0.989664,-0.01475,0.0173,-0.0026,23.899999618530273,12.09000015258789,103.01000213623047,99738.0
1775732963857539779,1915,1775732963857484966,F2008915,5510.0,5510.0,5510.0,-0.023959,-0.004973,1.001599,-0.02774,-0.00241,0.05902,23.799999237060547,12.010000228881836,103.12999725341797,99736.0
1775732963857540946,1916,1775732963857506037,F2008915,5440.0,5440.0,5440.0,-0.026095,-0.000295,1.004138,0.08759,0.05955,0.04488,23.799999237060547,12.029999732971191,103.04000091552734,99738.0
1775732963857567917,1917,1775732963857533515,F2008915,5480.0,5480.0,5480.0,-0.013452,0.000193,1.000689,-0.20167,-0.12555,0.07871,24.100000381469727,12.029999732971191,103.04000091552734,99738.0
1775732963933036907,1918,1775732963932962577,F2008915,5460.0,5460.0,5460.0,-0.02312,-0.005822,1.007092,-0.02789,-0.11312,0.12379,23.899999618530273,12.079999923706055,103.04000091552734,99738.0
1775732963933040398,1919,1775732963932994624,F2008915,5420.0,5420.0,5420.0,-0.005994,0.003273,0.995413,-0.00259,-0.16822,0.07468,23.799999237060547,12.09000015258789,103.04000091552734,99738.0
1775732963933146174,1920,1775732963933014872,F2008915,5480.0,5480.0,5480.0,-0.013663,-0.008032,1.000691,-0.16508,-0.23015,0.13524,23.799999237060547,12.140000343322754,103.0999984741211,99738.0
1775732963933149138,1921,1775732963933050505,F2008915,5430.0,5430.0,5430.0,-0.013037,-0.005957,0.997128,0.16699,-0.13311,0.15068,23.799999237060547,12.140000343322754,103.01000213623047,99738.0
1775732964000386870,1922,1775732964000305486,F2008915,5430.0,5430.0,5430.0,0.004651,-0.00815,0.989704,-0.24598,-0.12821,0.05741,23.899999618530273,12.15999984741211,103.04000091552734,99738.0
1775732964000404898,1923,1775732964000328652,F2008915,5470.0,5470.0,5470.0,-0.012034,-0.011995,1.001459,0.04946,-0.12993,0.08906,23.899999618530273,12.119999885559082,103.01000213623047,99738.0
1775732964000413418,1924,1775732964000345825,F2008915,5420.0,5420.0,5420.0,0.000439,-0.007521,0.997345,0.11418,-0.02349,-5e-05,23.700000762939453,12.09000015258789,103.04000091552734,99738.0
1775732964075867560,1925,1775732964075785032,F2008915,5440.0,5440.0,5440.0,-0.001763,-0.012065,1.003107,-0.25587,-0.05459,-0.0014,23.799999237060547,12.0600004196167,103.01000213623047,99738.0
1775732964075886380,1926,1775732964075814980,F2008915,5390.0,5390.0,5390.0,-0.014473,-0.007938,1.006943,0.14133,0.00675,0.00941,23.899999618530273,11.979999542236328,102.91999816894531,99740.0
1775732964075889069,1927,1775732964075830193,F2008915,5390.0,5390.0,5390.0,0.003906,-0.00571,0.993937,-0.18856,0.00855,-0.03379,23.899999618530273,12.109999656677246,102.94999694824219,99738.0
1775732964075892516,1928,1775732964075843828,F2008915,5460.0,5460.0,5460.0,-0.013573,-0.01136,0.999583,0.05286,0.01539,0.00686,23.899999618530273,12.130000114440918,102.9800033569336,99738.0
1775732964143242402,1929,1775732964143176678,F2008915,5420.0,5420.0,5420.0,-0.009257,-0.002502,0.992569,0.16724,0.05979,-0.02439,23.600000381469727,12.069999694824219,102.94999694824219,99738.0
1775732964143245942,1930,1775732964143198400,F2008915,5390.0,5390.0,5390.0,-0.007075,-0.007078,0.995172,0.02335,0.04348,-0.07144,23.799999237060547,12.079999923706055,103.01000213623047,99738.0
1775732964143249734,1931,1775732964143210609,F2008915,5350.0,5350.0,5350.0,-0.02589,-0.004969,1.004952,0.17779,0.04723,0.03537,23.799999237060547,12.020000457763672,103.01000213623047,99738.0
1775732964218742739,1932,1775732964218673351,F2008915,5430.0,5430.0,5430.0,-0.005745,-0.000498,0.995002,0.0855,0.00611,-0.03563,23.899999618530273,12.09000015258789,103.04000091552734,99738.0
1775732964218764976,1933,1775732964218697733,F2008915,5450.0,5450.0,5450.0,-0.017886,-0.006381,1.006357,-0.05102,-0.02478,0.02035,23.799999237060547,12.180000305175781,102.9800033569336,99738.0
1775732964218767514,1935,1775732964218725673,F2008915,5440.0,5440.0,5440.0,-0.007212,-0.006658,0.999431,-0.11952,-0.05304,-0.03394,23.700000762939453,12.010000228881836,102.94999694824219,99738.0
1775732964294308722,1936,1775732964294237182,F2008915,5390.0,5390.0,5390.0,-0.023863,-0.004918,1.006459,0.13284,-0.04363,0.04396,23.700000762939453,12.130000114440918,102.91999816894531,99740.0
1775732964294392208,1937,1775732964294260249,F2008915,5470.0,5470.0,5470.0,-0.005882,0.001473,0.993281,0.06972,-0.0901,-0.04263,23.899999618530273,12.119999885559082,102.91999816894531,99740.0
1775732964294398177,1939,1775732964294287891,F2008915,5410.0,5410.0,5410.0,-0.011967,0.000668,0.996786,0.25026,0.02175,0.05524,23.799999237060547,12.15999984741211,103.04000091552734,99738.0
1775732964361646188,1940,1775732964361512874,F2008915,5410.0,5410.0,5410.0,0.000572,0.000503,0.992633,-0.126,-0.03832,0.01949,23.799999237060547,12.050000190734863,103.04000091552734,99738.0
1775732964361664342,1941,1775732964361533642,F2008915,5450.0,5450.0,5450.0,-0.018641,-0.007501,1.006032,0.0861,0.00015,0.06912,23.899999618530273,12.079999923706055,102.9800033569336,99738.0
1775732964361666441,1942,1775732964361548684,F2008915,5440.0,5440.0,5440.0,-0.003616,-0.000991,0.996089,0.00665,0.01684,0.00082,23.899999618530273,12.220000267028809,102.9800033569336,99738.0
1775732964437125699,1943,1775732964437052535,F2008915,5490.0,5490.0,5490.0,-0.00672,-0.006146,0.998839,-0.23954,-0.04458,-0.00129,23.799999237060547,12.130000114440918,103.01000213623047,99738.0
1775732964437149017,1944,1775732964437075372,F2008915,5470.0,5470.0,5470.0,-0.01648,-0.004739,1.00246,0.07497,0.08121,-0.0264,23.799999237060547,12.130000114440918,103.01000213623047,99738.0
1775732964437152509,1945,1775732964437091732,F2008915,5460.0,5460.0,5460.0,-0.003368,-0.004358,0.994336,-0.16658,0.00605,-0.04292,23.899999618530273,12.039999961853027,103.04000091552734,99738.0
1775732964437155827,1946,1775732964437102855,F2008915,5450.0,5450.0,5450.0,-0.021605,-0.005597,1.003216,-0.14538,-0.01495,0.02751,23.799999237060547,12.069999694824219,103.01000213623047,99738.0
1775732964512613453,1947,1775732964512475837,F2008915,5510.0,5510.0,5510.0,-0.011041,0.000533,0.995289,0.10352,0.03634,0.02304,23.899999618530273,12.039999961853027,103.01000213623047,99738.0
1775732964512615965,1948,1775732964512493285,F2008915,5520.0,5520.0,5520.0,-0.008068,-0.006724,0.996128,-0.24455,-0.02869,0.04776,23.799999237060547,12.020000457763672,103.04000091552734,99738.0
1775732964512616993,1950,1775732964512522815,F2008915,5490.0,5490.0,5490.0,-0.001015,-0.005969,0.995389,-0.04923,0.04245,0.05554,23.700000762939453,12.079999923706055,102.9800033569336,99738.0
1775732964580004606,1951,1775732964579950673,F2008915,5490.0,5490.0,5490.0,-0.016616,-0.014799,1.006668,-0.10644,-0.01934,0.03865,23.799999237060547,12.0,103.01000213623047,99738.0
1775732964580019644,1952,1775732964579966774,F2008915,5460.0,5460.0,5460.0,-0.0148,-0.00843,1.004094,0.17817,0.01559,-0.03182,23.799999237060547,12.100000381469727,103.01000213623047,99738.0
1775732964580028118,1953,1775732964579981665,F2008915,5480.0,5480.0,5480.0,-0.004193,-0.009475,0.997707,-0.28801,-0.07858,-0.07404,23.799999237060547,12.119999885559082,103.04000091552734,99738.0
1775732964655449684,1954,1775732964655372004,F2008915,5440.0,5440.0,5440.0,-0.018128,-0.008813,1.002366,0.10532,0.01057,-0.00852,23.799999237060547,12.09000015258789,103.04000091552734,99738.0
